Time,ax,ay,az,gx,gy ,gz ,r ,p,y,manual,heart
77,0.952,0.252,0.216,-0.07,1.74,4.31,-70.785,49.402,0,0,115
98,0.956,0.252,0.212,0.77,1.32,4.24,-70.998,49.931,44.031,0,112
118,0.968,0.256,0.216,1.53,-0.49,3.97,-70.918,49.848,44.304,0,85
139,0.968,0.264,0.224,0.49,-1.04,4.59,-70.325,49.69,44.304,0,78
160,0.964,0.26,0.184,1.04,-6.4,6.05,-71.721,54.717,44.304,0,89
181,0.992,0.284,0.172,-1.39,-8.7,7.51,-71.5,58.804,44.304,0,97
201,1.024,0.284,0.168,-0.83,0.63,5.01,-72.145,59.398,44.304,0,104
222,0.992,0.252,0.26,-2.78,4.17,0.83,-69.267,41.944,43.872,0,140
243,0.964,0.244,0.284,-3.27,5.5,1.39,-68.792,41.944,43.779,0,153
264,0.952,0.252,0.276,-1.81,2.64,3.41,-67.593,41.685,43.777,0,166
284,0.936,0.272,0.276,1.74,-1.04,3.41,-67.515,44.585,43.775,0,176
305,0.924,0.26,0.236,5.36,-2.37,3.27,-69.197,47.774,43.654,0,159
326,0.92,0.256,0.192,1.81,-1.18,4.59,-70.826,53.134,43.654,0,198
347,0.92,0.256,0.176,-1.04,-0.63,5.91,-71.347,55.496,43.654,0,217
367,0.936,0.256,0.148,0.21,0.21,4.52,-72.473,59.971,43.654,0,238
389,0.964,0.256,0.168,-0.21,0.56,2.92,-72.384,56.729,43.654,0,242
409,0.984,0.248,0.172,-1.25,2.02,2.71,-72.189,55.309,43.7,0,271
430,0.98,0.256,0.18,-2.23,2.16,3.2,-72.104,54.297,43.764,0,286
450,0.972,0.248,0.188,-0.28,1.6,3.27,-71.753,52.129,43.682,0,361
472,0.964,0.248,0.2,1.6,0.77,3.06,-71.717,51.119,43.442,0,299
492,0.968,0.26,0.2,0.9,0.21,3.41,-71.285,52.435,43.596,0,181
513,0.964,0.252,0.168,4.38,0,3.2,-72.564,56.314,43.599,0,268
533,0.964,0.256,0.244,-1.04,-0.28,4.45,-69.859,46.378,43.599,0,276
555,0.96,0.244,0.188,-2.92,0.77,3.9,-72.216,52.39,43.599,0,277
575,0.948,0.256,0.196,-1.04,1.46,3.76,-71.222,52.565,43.599,0,281
595,0.956,0.24,0.208,2.3,1.11,2.64,-72.309,49.24,43.599,0,316
617,0.968,0.236,0.188,2.16,2.92,2.3,-72.088,51.23,43.504,0,332
637,0.968,0.244,0.208,0.97,4.17,2.78,-71.521,49.479,43.745,0,351
658,0.972,0.256,0.216,1.39,4.45,2.57,-70.991,49.848,43.508,0,367
678,0.968,0.256,0.216,2.57,3.62,1.81,-70.918,49.848,43.586,0,359
700,0.968,0.268,0.22,2.23,2.5,2.02,-70.298,50.621,43.583,0,333
720,0.964,0.256,0.224,3.06,1.6,2.16,-70.569,48.818,43.583,0,295
741,0.96,0.264,0.22,2.37,1.18,2.37,-70.309,50.198,43.583,0,273
761,0.964,0.264,0.22,1.88,0.83,2.23,-70.385,50.198,43.583,0,262
783,0.952,0.252,0.196,2.5,0.7,2.37,-70.138,50.714,43.583,0,284
803,0.94,0.264,0.244,1.32,0.97,2.02,-70.484,51.77,43.786,0,298
824,0.952,0.26,0.192,0.49,1.81,2.5,-71.071,49.931,43.736,0,307
845,0.952,0.248,0.208,2.16,0,2.71,-71.445,50.017,43.726,1,314
866,0.968,0.26,0.208,-0.21,0.63,3.2,-71.024,51.344,43.59,1,310
886,0.968,0.26,0.212,0.77,0.28,3.2,-70.891,50.81,43.98,1,293
907,0.976,0.264,0.208,-0.14,0.56,2.71,-71.004,51.77,43.98,1,285
928,0.972,0.26,0.208,0.28,0.7,2.71,-71.096,51.344,43.98,1,282
949,0.968,0.26,0.208,1.32,0.63,2.85,-71.024,51.344,43.98,1,283
969,0.96,0.264,0.2,1.53,0.42,2.92,-70.971,52.857,43.98,1,305
990,0.96,0.26,0.2,0.9,0.28,3.34,-71.14,52.435,43.833,1,323
1010,0.96,0.252,0.2,1.6,-0.35,3.55,-71.177,51.453,43.648,1,325
1032,0.96,0.252,0.208,0.83,-0.63,3.69,-70.803,51.344,43.669,1,338
1052,0.972,0.26,0.208,1.04,-0.7,3.34,-71.096,51.344,43.689,1,333
1073,0.976,0.26,0.212,0,-0.21,3.55,-71.036,50.81,43.846,1,305
1094,0.972,0.26,0.196,-0.77,0.42,3.9,-71.485,52.993,43.846,1,299
1115,0.972,0.26,0.204,-0.35,-0.35,3.97,-71.227,51.886,43.846,1,317
1135,0.976,0.26,0.216,0.14,-1.25,4.24,-70.903,50.285,43.846,1,406
1157,0.976,0.256,0.216,-0.77,-2.43,4.66,-71.064,49.848,43.846,1,201
1177,0.976,0.252,0.196,3.13,-2.37,3.69,-73.049,57.176,43.552,1,340
1198,0.964,0.26,0.18,-3.41,-2.3,4.31,-70.381,46.401,43.531,1,345
1219,0.98,0.244,0.2,-3.62,-1.11,2.57,-71.753,52.129,43.646,1,353
1240,0.956,0.256,0.192,-1.46,-1.39,3.97,-71.498,53.134,43.457,1,360
1260,0.972,0.256,0.212,1.04,-1.81,3.06,-71.127,50.375,43.453,1,338
1282,0.98,0.248,0.18,2.02,-1.25,2.57,-72.641,54.032,43.453,1,337
1302,0.98,0.256,0.204,0.83,0.14,3.34,-71.535,51.453,43.453,1,343
1323,0.984,0.256,0.2,1.39,-0.49,2.71,-71.735,52.005,43.453,1,357
1344,0.984,0.264,0.2,0.9,-0.77,3.2,-71.753,52.129,43.453,1,373
1364,0.96,0.248,0.192,2.09,-1.74,3.27,-71.813,52.7,43.324,1,390
1385,0.964,0.252,0.188,1.74,-1.67,3.06,-72.081,53.28,43.344,1,364
1406,0.976,0.252,0.196,-0.14,-1.18,3.41,-71.892,52.129,43.155,1,341
1427,0.972,0.256,0.192,-0.49,-0.83,3.41,-71.783,53.134,43.36,1,333
1447,0.98,0.252,0.184,0.83,-0.56,3.2,-72.344,53.869,43.308,1,304
1469,0.98,0.26,0.208,-1.25,-0.7,3.48,-71.24,51.344,43.308,1,297
1489,0.98,0.256,0.176,-0.9,0.7,3.69,-72.417,55.496,43.308,1,294
1510,0.972,0.248,0.184,-0.07,-0.56,3.97,-72.38,53.431,43.308,1,292
1530,0.98,0.256,0.188,-0.97,0.28,3.34,-72.139,53.869,43.308,1,296
1552,0.968,0.248,0.192,-0.49,0.14,3.41,-72.022,52.7,43.25,1,325
1572,0.98,0.252,0.184,-2.09,1.74,3.48,-72.515,53.431,42.834,1,337
1593,0.968,0.244,0.196,-1.88,1.53,3.76,-72.088,51.23,43.163,1,341
1614,0.968,0.248,0.184,-0.07,0.9,3.83,-72.312,53.431,42.941,1,345
1635,0.976,0.26,0.192,-0.42,1.46,3.62,-71.683,53.56,42.92,1,321
1655,0.98,0.252,0.184,-0.56,1.39,3.97,-72.344,53.869,42.916,1,315
1677,0.972,0.256,0.184,-0.21,0.63,3.69,-72.035,54.297,42.916,1,303
1697,0.976,0.252,0.188,0.77,0.28,3.13,-72.15,53.28,42.916,1,292
1718,0.972,0.252,0.188,-0.35,-0.42,3.06,-72.574,54.032,42.916,1,294
1739,0.968,0.252,0.184,0,-0.56,3.55,-72.183,52.839,42.933,1,319
1760,0.972,0.248,0.176,0.97,-0.63,3.2,-72.448,53.431,42.859,1,330
1780,0.972,0.248,0.18,1.04,-0.56,3.27,-72.507,54.032,42.687,1,331
1802,0.98,0.24,0.176,1.25,0.07,2.78,-73.112,53.75,42.838,1,329
1822,0.976,0.252,0.176,-0.9,0.49,3.06,-72.524,55.073,42.794,1,312
1843,0.98,0.248,0.176,0.21,-0.21,2.92,-72.766,54.642,42.725,1,318
1864,0.984,0.248,0.184,1.32,-0.97,2.57,-72.582,53.431,42.725,1,378
1885,0.984,0.252,0.184,1.25,-0.07,2.64,-72.412,53.869,42.725,1,207
1905,0.988,0.252,0.18,3.06,0.63,2.85,-73.988,60.559,42.725,1,305
1927,0.984,0.252,0.156,-0.77,0.14,4.59,-71.732,48.949,42.725,1,304
1947,0.988,0.232,0.176,-3.48,2.16,4.24,-72.756,55.261,42.891,1,320
1968,0.968,0.252,0.156,-1.11,1.04,5.08,-72.982,58.245,42.641,1,328
1989,0.98,0.24,0.176,2.09,0.77,3.69,-73.112,53.75,42.846,1,334
2010,1,0.248,0.164,0.49,1.46,3.48,-73.447,56.528,42.542,1,327
2030,0.992,0.248,0.176,0.28,2.5,3.34,-72.962,54.642,42.459,1,308
2052,0.984,0.256,0.172,0.77,2.23,3.13,-72.603,56.108,42.459,1,312
2072,0.976,0.248,0.176,1.04,1.39,3.13,-72.689,55.261,42.459,1,312
2093,0.968,0.252,0.176,1.25,1.46,3.06,-72.75,56.948,42.459,1,306
2113,0.972,0.244,0.168,1.88,1.25,3.27,-73.233,55.012,42.459,1,314
2135,0.964,0.248,0.168,-0.21,2.16,3.34,-72.744,55.89,42.567,1,304
2155,0.968,0.244,0.176,-0.14,2.71,3.06,-72.74,54.201,42.568,1,305
2176,0.976,0.24,0.164,1.32,2.99,3.34,-73.42,55.658,42.424,1,306
2197,0.988,0.252,0.204,-1.25,4.8,2.71,-71.838,51.013,42.525,1,307
2217,0.988,0.248,0.16,-1.46,5.15,3.13,-73.374,57.176,42.554,1,282
2238,0.984,0.252,0.184,-2.37,4.66,3.34,-72.412,53.869,42.554,1,277
2259,0.976,0.248,0.184,-1.95,4.73,2.92,-72.276,53.869,42.554,1,273
2280,0.976,0.244,0.196,-1.53,5.01,3.34,-72.294,51.23,42.554,1,268
2300,0.976,0.24,0.2,-0.97,3.97,3.76,-72.419,49.724,42.554,1,284
2322,0.972,0.24,0.192,0,2.37,3.34,-72.458,51.344,42.602,1,295
2342,0.94,0.248,0.192,-0.14,1.67,3.55,-71.554,52.257,42.528,1,310
2363,0.96,0.248,0.184,0.97,0.35,3.69,-72.174,53.431,42.438,1,315
2384,0.964,0.24,0.184,1.04,-0.56,3.62,-72.588,52.528,42.487,1,314
2405,0.98,0.244,0.188,0.35,-0.77,3.83,-72.557,52.39,42.585,1,293
2425,0.992,0.244,0.188,-0.56,-0.49,3.62,-72.755,52.39,42.585,1,286
2447,0.972,0.248,0.184,0.77,-0.9,3.62,-72.613,53.588,42.585,1,281
2467,0.976,0.248,0.192,0.63,-0.97,3.13,-72.15,53.28,42.585,1,279
2488,0.984,0.248,0.184,0.63,-0.77,2.64,-73.22,52.671,42.585,1,291
2509,0.964,0.232,0.18,0.9,-1.11,3.34,-73.064,52.197,42.445,1,320
2530,0.976,0.232,0.188,1.18,-0.49,3.13,-72.994,50.984,42.442,1,425
2550,0.976,0.236,0.168,1.04,0.42,2.37,-73.474,54.558,42.232,1,294
2572,0.984,0.236,0.188,3.34,1.11,2.16,-72.958,51.463,42.419,1,352
2592,0.988,0.244,0.14,0.49,-0.14,1.81,-74.112,60.159,42.433,1,314
2613,0.988,0.244,0.2,-0.77,1.74,3.27,-72.779,55.689,42.433,1,314
2634,0.976,0.256,0.18,-2.09,-0.63,5.36,-72.259,52.257,42.433,1,320
2655,0.988,0.244,0.192,2.23,-1.46,4.87,-73.134,54.201,42.433,1,319
2675,0.996,0.232,0.172,1.25,-0.77,3.97,-73.835,53.451,42.433,1,334
2697,0.96,0.244,0.164,-0.21,0.63,6.12,-72.979,56.098,42.262,1,375
2717,0.972,0.244,0.172,2.71,-0.83,5.08,-72.932,54.823,42.255,1,389
2738,0.976,0.24,0.16,1.04,-0.56,4.17,-73.541,56.314,42.211,1,408
2759,0.964,0.224,0.176,1.67,-1.46,2.57,-73.542,51.847,42.167,1,409
2780,0.96,0.22,0.176,1.81,-1.53,2.09,-73.65,51.344,42.234,1,368
2800,0.956,0.216,0.172,2.16,-1.04,1.39,-73.239,52.338,42.234,1,336
2822,0.952,0.236,0.168,0.49,-0.14,1.53,-73.405,55.208,42.234,1,322
2842,0.972,0.232,0.168,1.6,0.28,2.85,-73.356,55.658,42.234,1,319
2863,0.976,0.232,0.2,-0.14,1.81,1.67,-72.581,49.24,42.234,1,316
2884,0.968,0.228,0.156,0.7,0,0.97,-74.077,55.624,42.193,1,348
2905,0.988,0.224,0.176,-1.18,0.49,-0.07,-73.921,51.847,42.095,1,347
2925,0.96,0.236,0.168,-2.09,1.32,2.23,-73.214,54.558,42.151,1,363
2947,0.968,0.24,0.16,-3.97,4.52,1.81,-73.412,56.314,42.306,1,357
2967,0.96,0.244,0.148,-8,3.62,2.23,-73.45,58.765,42.246,1,321
2988,0.968,0.248,0.16,-5.7,1.18,3.76,-72.646,55.689,42.278,1,313
3009,0.972,0.252,0.176,-2.78,-0.83,3.13,-72.564,56.314,42.278,1,324
3030,0.972,0.248,0.16,-3.83,0.07,2.64,-73.42,55.658,42.278,0,306
3050,0.988,0.236,0.168,-4.31,1.6,1.39,-73.664,54.558,42.278,0,306
3072,0.968,0.232,0.164,-5.5,2.57,0.28,-73.648,54.748,42.311,0,329
3092,0.98,0.232,0.192,-1.81,0.35,-1.11,-72.924,50.393,41.999,0,343
3112,1,0.236,0.188,2.3,0.14,-3.13,-73.215,51.463,42.065,0,366
3134,0.992,0.212,0.172,1.46,0.83,-4.59,-74.619,50.951,42.047,0,344
3154,0.988,0.224,0.168,-0.77,0.49,-3.9,-74.183,53.134,42.207,0,326
3175,0.988,0.232,0.184,4.52,-0.9,-3.55,-72.392,50.766,42.163,0,388
3196,0.98,0.244,0.2,7.93,-2.37,-3.55,-72.813,53.588,42.163,0,282
3217,0.972,0.248,0.156,3.27,-1.18,-2.02,-73.345,58.5,42.163,0,313
3237,0.972,0.24,0.116,7.1,-2.3,-1.88,-74.67,64.209,42.163,0,296
3259,0.984,0.248,0.212,6.05,-0.9,-0.07,-71.661,49.479,42.163,0,358
3279,0.96,0.26,0.148,1.95,-1.6,1.95,-72.696,60.355,42.768,0,348
3300,0.968,0.256,0.144,5.08,-0.7,4.03,-73.126,60.647,43.015,0,365
3320,0.996,0.252,0.172,8.7,-0.97,5.15,-72.974,55.689,42.872,0,384
3342,0.992,0.256,0.16,4.52,1.39,6.19,-72.853,57.762,43.02,0,344
3362,0.992,0.26,0.164,3.97,4.1,8.14,-72.703,58.397,42.995,0,329
3383,0.972,0.256,0.172,6.4,4.45,6.82,-72.07,53.869,42.995,0,325
3404,0.956,0.264,0.16,8.7,2.99,6.75,-72.11,58.786,42.995,0,308
3425,0.96,0.264,0.16,8.83,3.34,5.91,-72.179,58.786,42.995,0,301
3445,0.948,0.244,0.16,9.6,3.27,4.8,-72.898,56.75,42.995,0,286
3467,0.944,0.248,0.184,8.35,0.83,5.15,-71.891,53.431,42.901,0,291
3487,0.968,0.268,0.152,5.5,0.14,4.31,-72.35,60.444,42.743,0,311
3508,0.972,0.268,0.196,3.2,1.67,3.2,-71.146,53.824,43.044,0,292
3529,0.968,0.248,0.148,3.55,1.32,0.83,-72.733,57.592,42.817,0,232
3550,0.96,0.256,0.164,-0.35,0.07,0.21,-72.274,58.155,42.873,0,185
3570,0.976,0.264,0.16,-0.97,0.21,-0.56,-72.048,58.917,42.873,0,183
3592,0.984,0.264,0.172,1.11,-0.21,-0.83,-72.25,56.919,42.873,0,93
3612,0.992,0.24,0.172,5.22,-1.39,-2.64,-73.43,54.376,42.873,0,92
3633,0.988,0.224,0.16,2.71,-1.39,-2.23,-74.437,54.466,42.873,0,78
3654,0.976,0.24,0.152,2.37,-0.56,-0.97,-73.777,57.657,43.016,0,63
3675,0.964,0.256,0.16,4.94,-1.53,-1.81,-72.617,57.999,43.162,0,23
3695,0.984,0.252,0.144,5.43,-1.18,-1.25,-73.571,60.26,43.362,0,38
3716,0.988,0.256,0.132,2.64,-0.9,0.56,-73.39,61.025,43.468,0,8
3737,0.992,0.256,0.156,2.02,-1.95,0.9,-73.039,60.729,43.503,0,8
3758,0.996,0.264,0.148,1.6,-2.78,0.35,-72.962,63.44,43.503,0,7
3778,0.984,0.28,0.14,-0.07,-3.83,1.11,-72.357,63.44,43.503,0,7
3799,0.988,0.292,0.152,3.06,-5.5,-0.28,-71.578,62.505,43.503,0,8
3820,0.98,0.3,0.128,1.74,-4.66,-1.11,-71.597,66.899,43.503,0,10
3841,0.972,0.316,0.112,-3.13,-2.85,-0.83,-70.975,70.489,43.69,0,9
3861,0.964,0.3,0.124,-2.57,-3.76,-2.99,-71.395,67.548,43.715,0,10
3881,0.964,0.276,0.128,2.85,-3.13,-4.87,-72.49,65.124,43.604,0,9
3903,0.988,0.268,0.128,1.53,-2.43,-4.45,-73.151,63.099,43.77,0,8
3923,1,0.272,0.14,1.39,-1.81,-2.78,-73.06,62.769,43.741,0,8
3944,1,0.268,0.148,6.96,-1.18,-1.95,-73.588,64.475,43.741,0,7
3964,1.008,0.276,0.092,4.87,-2.09,1.18,-72.411,67.275,43.741,0,7
3986,1.008,0.304,0.144,-3.69,1.95,0.97,-71.551,64.659,43.741,0,8
4006,0.968,0.284,0.112,0.28,1.81,0.21,-72.501,68.482,43.741,0,9
4027,0.98,0.272,0.124,5.84,1.04,1.25,-73.042,65.497,43.983,0,93
4047,0.984,0.272,0.116,5.57,1.6,2.78,-73.279,66.908,44.096,0,149
4069,0.976,0.284,0.12,5.29,2.3,4.59,-72.474,67.099,44.265,0,196
4089,0.964,0.304,0.112,4.94,3.9,4.24,-71.429,69.78,44.321,0,236
4110,0.964,0.304,0.108,6.05,3.48,2.71,-71.458,67.937,44.212,0,226
4131,0.956,0.292,0.116,5.57,2.5,4.38,-71.63,69.533,44.193,0,240
4152,0.98,0.312,0.12,2.23,1.6,5.36,-70.436,68.448,44.193,0,230
4172,0.976,0.332,0.12,-0.14,1.32,4.17,-70.12,70.133,44.193,0,219
4194,0.976,0.324,0.14,-0.83,-0.35,2.37,-70.124,66.636,44.193,0,234
4214,0.984,0.316,0.116,-2.78,0.35,1.95,-71.12,69.848,44.189,0,292
4235,0.976,0.3,0.148,-5.84,1.32,1.95,-71.086,63.746,44.196,0,337
4256,0.976,0.296,0.112,-3.2,2.57,2.92,-72.039,69.28,44.401,0,371
4277,0.984,0.284,0.128,-1.53,0.9,3.97,-72.418,65.076,44.384,0,390
4297,0.992,0.284,0.136,-2.3,1.53,4.24,-72.87,64.764,44.097,0,377
4319,1.008,0.28,0.136,-2.37,2.43,4.38,-72.661,60.169,44.074,0,354
4339,0.996,0.28,0.144,-1.67,2.99,4.8,-72.462,62.789,44.074,0,368
4360,0.992,0.28,0.136,-1.04,3.48,6.05,-72.584,64.098,44.074,0,380
4381,0.976,0.28,0.144,0.35,2.85,5.7,-72.126,62.789,44.074,0,383
4402,0.96,0.288,0.132,0.14,1.95,5.84,-71.742,65.381,44.074,0,450
4422,0.956,0.28,0.136,1.74,1.67,5.29,-71.97,64.098,43.862,0,482
4444,0.968,0.272,0.124,2.64,1.88,6.05,-72.844,65.497,44.103,0,498
4464,0.984,0.276,0.116,0.49,2.99,6.61,-73.064,66.506,43.801,0,521
4485,0.988,0.272,0.12,1.25,3.55,5.84,-73.301,65.175,44.016,0,496
4506,0.984,0.264,0.128,2.02,2.99,5.91,-73.309,63.783,43.975,0,476
4527,0.988,0.264,0.116,0.97,3.27,6.54,-73.735,66.284,43.975,0,446
4547,0.984,0.268,0.108,-1.53,4.59,6.89,-73.641,68.056,43.975,0,442
4569,0.984,0.272,0.124,-2.43,5.01,6.82,-73.107,65.497,43.975,0,452
4589,0.984,0.268,0.136,-0.83,4.94,6.47,-73.022,63.099,43.975,0,484
4610,0.976,0.264,0.14,-2.78,6.26,5.84,-72.982,62.067,43.619,0,524
4631,0.98,0.264,0.14,-4.03,7.72,4.94,-73.048,62.067,43.452,0,555
4652,0.968,0.248,0.16,-3.9,5.91,4.31,-72.564,56.314,43.53,0,521
4672,0.96,0.252,0.164,-3.27,3.69,4.52,-72.408,57.136,43.377,0,520
4694,0.976,0.268,0.16,-4.1,4.31,4.8,-72.195,60.169,43.501,0,452
4714,0.964,0.276,0.132,-5.29,6.12,5.7,-72.398,64.445,43.501,0,442
4734,0.956,0.256,0.16,-1.81,6.54,4.1,-72.48,57.999,43.501,0,525
4756,0.972,0.228,0.18,3.9,3.34,3.55,-73.366,51.714,43.501,0,388
4776,0.988,0.256,0.16,1.53,3.34,6.05,-73.015,57.999,43.501,0,434
4797,1.016,0.252,0.128,7.86,3.48,3.55,-74.459,63.077,43.369,0,474
4818,1.008,0.268,0.184,3.62,6.05,3.2,-72.981,56.729,43.276,0,505
4839,0.98,0.248,0.164,1.39,5.43,3.55,-73.166,57.833,43.146,0,512
4859,0.964,0.256,0.152,2.16,2.99,5.5,-71.721,60.26,43.532,0,508
4881,0.976,0.284,0.148,3.48,4.87,5.29,-71.863,64.727,43.374,0,463
4901,0.964,0.28,0.14,2.37,6.12,6.47,-72.015,63.44,43.374,0,448
4922,0.98,0.292,0.14,-4.17,9.46,7.03,-71.72,64.389,43.374,0,443
4943,0.972,0.284,0.148,-1.25,6.96,8.14,-71.77,62.479,43.374,0,449
4964,0.984,0.284,0.144,1.39,6.54,8.07,-72.074,63.118,43.374,0,481
4984,0.98,0.264,0.148,1.11,8.49,6.54,-72.843,60.729,43.028,0,499
5006,0.952,0.232,0.14,-4.31,7.51,5.91,-73.752,59.041,42.963,0,498
5026,0.968,0.256,0.144,-9.67,7.93,6.19,-72.311,59.801,42.934,0,486
5047,0.976,0.276,0.164,-2.64,7.44,5.01,-71.938,58.303,42.934,0,485
5068,0.984,0.244,0.184,-0.83,8.56,3.76,-72.752,52.984,42.818,0,435
5089,0.992,0.216,0.184,-1.53,8.83,2.78,-74.043,49.578,42.818,0,423
5109,0.984,0.236,0.176,-6.96,9.46,5.43,-73.349,53.29,42.818,0,422
5131,0.964,0.272,0.18,-8.21,7.93,9.81,-71.312,56.509,42.818,0,457
5151,0.988,0.276,0.212,-4.73,9.46,11.13,-70.6,52.475,42.818,0,519
5172,0.988,0.26,0.188,-5.91,10.43,10.85,-72.014,54.134,42.753,0,596
5193,0.988,0.256,0.188,-10.16,11.06,10.57,-72.15,53.28,42.383,0,630
5214,0.976,0.252,0.184,-11.48,10.3,10.09,-71.962,52.129,42.709,0,639
5235,0.972,0.24,0.192,-11.06,11.83,11.2,-72.458,51.344,42.782,0,647
5256,0.964,0.244,0.18,-12.52,10.92,10.5,-72.545,53.588,43.253,0,649
5277,0.976,0.232,0.216,-10.71,9.11,8.9,-72.013,47.049,43.253,0,643
5298,0.968,0.236,0.212,-10.85,8.97,7.86,-71.86,48.07,43.253,0,645
5318,0.964,0.224,0.22,-10.64,8.63,8.07,-71.965,45.52,43.253,0,646
5340,0.964,0.22,0.232,-11.2,7.93,8.42,-71.656,43.482,43.253,0,638
5360,0.948,0.184,0.248,-8.56,6.33,8,-72.149,35.365,43.665,0,641
5381,0.96,0.16,0.248,-7.79,6.19,10.16,-72.565,35.365,43.431,0,640
5402,0.968,0.176,0.252,-6.82,6.54,11.48,-72.998,35.183,42.747,0,638
5423,0.96,0.176,0.244,-5.22,6.05,11.83,-72.605,35.806,42.431,0,642
5443,0.972,0.172,0.268,-2.23,4.59,11.27,-71.865,32.694,42.104,0,651
5465,0.968,0.16,0.264,-1.11,2.5,9.88,-72.318,31.221,42.126,0,651
5485,0.968,0.16,0.26,-0.83,1.67,9.6,-72.501,31.61,42.126,0,651
5506,0.98,0.168,0.256,-0.07,2.57,10.5,-72.654,33.277,42.126,0,653
5527,0.972,0.16,0.252,3.48,1.39,9.46,-73.611,29.448,42.126,0,638
5548,0.964,0.132,0.252,4.73,1.53,8.28,-73.547,29.448,41.977,0,641
5568,0.964,0.14,0.244,2.3,1.6,8.83,-73.034,32.174,40.443,0,639
5590,0.972,0.156,0.236,2.57,1.95,8.56,-73.778,33.468,40.21,0,637
5610,0.96,0.136,0.216,6.61,0.77,6.82,-75.116,32.198,40.266,0,640
5630,0.96,0.12,0.24,7.17,4.17,4.8,-74.389,26.567,40.132,0,649
5652,0.944,0.128,0.22,7.37,1.81,4.24,-74.916,30.194,40.093,0,558
5672,0.96,0.176,0.244,6.05,-0.21,5.63,-72.605,35.806,40.093,0,528
5693,0.976,0.192,0.224,6.75,-0.7,5.7,-73.186,40.604,40.093,0,490
5714,0.968,0.224,0.24,7.58,-2.3,4.45,-71.401,42.042,40.093,0,465
5735,0.976,0.224,0.236,5.91,-1.39,0.14,-71.783,42.994,40.04,0,476
5755,0.984,0.216,0.232,2.09,0.21,-0.56,-72.682,42.882,40.358,0,472
5777,0.964,0.204,0.228,0.7,-0.14,-0.07,-72.398,41.823,40.277,0,453
5797,0.956,0.196,0.228,0.56,-0.49,0.07,-72.547,40.687,40.312,0,409
5818,0.964,0.2,0.22,-0.49,0.07,0.77,-72.864,42.277,40.301,0,329
5839,0.964,0.2,0.228,-2.16,0,0.77,-72.541,41.26,40.402,0,274
5860,0.972,0.188,0.22,-2.3,-0.14,0.83,-73.426,40.518,40.402,0,247
5880,0.98,0.184,0.22,-2.71,0.49,1.81,-73.693,39.911,40.402,0,224
5902,0.984,0.192,0.22,-1.18,2.99,1.95,-74.425,44.413,40.402,0,209
5922,0.972,0.18,0.212,-1.04,1.67,3.2,-72.656,37.479,40.402,0,232
5943,0.972,0.172,0.24,-0.49,0.77,2.09,-73.283,36.088,40.398,0,238
5963,0.984,0.164,0.232,-0.7,1.11,3.69,-73.9,35.259,40.264,0,239
5985,0.98,0.164,0.22,-2.16,2.43,4.52,-74.363,36.706,40.348,0,234
6005,0.972,0.168,0.232,-2.57,2.23,5.29,-73.586,35.912,40.237,0,215
6027,0.976,0.164,0.228,-2.02,0.7,4.94,-73.952,35.73,40.305,0,186
6047,0.976,0.168,0.228,0.07,-0.07,4.38,-73.824,36.387,40.305,0,174
6068,0.976,0.164,0.232,1.11,-0.07,4.38,-74.076,35.73,40.305,0,167
6088,0.988,0.16,0.236,1.74,0.7,4.24,-73.964,32.35,40.305,0,165
6110,0.98,0.156,0.228,2.3,1.81,3.97,-74.077,35.062,40.305,0,187
6130,0.972,0.16,0.228,2.57,1.32,3.2,-73.873,36.873,40.243,0,204
6151,0.976,0.168,0.236,2.09,1.18,2.02,-73.474,35.448,40.121,0,213
6172,0.968,0.18,0.224,1.18,1.18,2.02,-73.471,38.787,40.24,0,215
6193,0.984,0.18,0.232,0.49,1.04,2.16,-73.39,37.809,40.196,0,213
6213,0.98,0.188,0.236,0.9,1.04,1.95,-72.893,38.544,40.165,0,186
6235,0.976,0.188,0.228,0.35,0.35,1.81,-73.16,39.511,40.165,0,192
6255,0.98,0.188,0.232,-0.07,0,1.95,-72.957,40.104,40.165,0,181
6276,0.976,0.184,0.228,-0.56,0.35,2.23,-73.566,39.911,40.165,0,174
6297,0.976,0.18,0.224,-1.39,0.14,1.46,-73.913,40.336,40.165,0,195
6318,0.968,0.176,0.212,-0.14,-0.9,0.49,-74.117,39.702,40.13,0,233
6338,0.98,0.168,0.212,-0.28,0.83,2.23,-74.575,38.398,39.965,0,351
6360,0.972,0.168,0.22,-1.53,0.42,1.81,-74.109,37.369,40.174,0,112
6380,0.968,0.164,0.216,1.95,-0.35,1.74,-74.354,37.211,40.249,0,239
6401,0.964,0.18,0.208,-0.77,-0.28,2.23,-74.08,40.875,40.043,0,217
6422,0.98,0.18,0.232,-2.92,1.67,1.46,-73.326,37.809,40.043,0,216
6443,0.98,0.172,0.208,-1.67,3.13,2.5,-73.872,39.809,40.043,0,219
6463,0.98,0.184,0.224,2.16,0.42,2.71,-72.725,38.076,40.043,0,225
6484,0.976,0.176,0.22,3.76,-0.07,1.95,-74.109,37.369,40.043,0,249
6505,0.968,0.168,0.224,2.92,-0.63,2.16,-73.873,36.873,40.158,0,288
6525,0.98,0.176,0.216,2.37,0.7,2.43,-74.134,39.177,40.282,0,316
6547,0.964,0.184,0.216,1.81,-0.42,2.02,-73.604,40.429,40.443,0,339
6567,0.976,0.184,0.216,2.43,-0.21,2.57,-73.795,40.429,40.313,0,336
6588,0.984,0.192,0.22,0.9,1.04,3.62,-73.477,41.115,40.257,0,278
6609,0.976,0.192,0.216,1.11,0.49,2.5,-73.511,41.637,40.257,0,231
6630,0.976,0.188,0.22,0.56,0.83,1.46,-73.463,39.404,40.257,0,211
6650,0.976,0.188,0.228,1.88,2.43,1.88,-74.196,39.177,40.257,0,207
6672,0.976,0.172,0.22,3.06,1.39,1.6,-72.786,36.873,40.257,0,214
6692,0.968,0.176,0.212,2.23,2.23,2.57,-74.117,39.702,40.279,0,255
6713,0.972,0.188,0.232,1.67,0.77,3.34,-72.928,39.022,40.282,0,271
6734,0.972,0.188,0.204,2.43,0,2.5,-74.076,42.666,40.348,0,281
6755,0.98,0.196,0.208,0.07,1.46,3.97,-73.747,43.302,40.41,0,289
6775,0.988,0.184,0.216,0.77,0.7,2.85,-73.982,40.429,40.231,0,263
6797,0.984,0.196,0.216,-1.11,1.46,2.85,-73.414,41.115,40.216,0,253
6817,0.98,0.184,0.22,-0.35,1.32,3.06,-73.904,38.663,40.216,0,246
6838,0.976,0.172,0.216,0.56,1.04,3.06,-73.935,39.809,40.216,0,246
6859,0.98,0.184,0.22,0.63,1.04,3.2,-73.693,39.911,40.216,0,247
6880,0.972,0.172,0.212,-0.21,1.25,3.2,-74.317,39.056,40.194,0,284
6900,0.972,0.18,0.208,0.14,1.39,3.48,-74.204,40.875,40.349,0,300
6922,0.972,0.184,0.204,-0.28,1.46,3.55,-74.223,42.052,40.382,0,308
6942,0.972,0.176,0.216,-0.35,1.53,3.48,-74.01,39.177,39.983,1,316
6963,0.98,0.184,0.216,-0.7,1.53,3.34,-73.858,40.429,40.255,1,295
6984,0.984,0.184,0.212,-0.83,1.46,3.2,-74.059,39.809,40.15,1,285
7005,0.98,0.184,0.22,-1.11,1.53,3.48,-73.858,40.429,40.15,1,294
7025,0.976,0.18,0.212,-0.97,0.21,2.02,-73.326,40.009,40.15,1,287
7046,0.98,0.188,0.216,-1.74,2.02,3.34,-73.717,41.038,40.15,1,280
7067,0.976,0.168,0.204,-2.57,2.85,4.03,-74.855,39.475,40.15,1,309
7088,0.972,0.168,0.212,-1.67,2.5,3.83,-74.454,38.398,40.108,1,330
7108,0.976,0.172,0.208,-1.32,2.64,3.2,-74.547,39.591,40.339,1,510
7130,0.972,0.172,0.22,-1.88,2.43,2.71,-73.976,38.022,40.049,1,209
7150,0.976,0.184,0.236,-1.6,0.77,2.92,-72.959,37.945,40.164,1,312
7171,0.984,0.176,0.204,0.49,0.35,2.37,-73.897,40.959,40.179,1,312
7192,0.976,0.176,0.236,-2.37,1.6,2.02,-73.788,35.448,40.179,1,315
7213,0.988,0.18,0.228,-2.43,2.99,2.37,-74.245,41.5,40.179,1,316
7233,0.98,0.184,0.232,0.63,1.32,2.99,-73.193,38.421,40.179,1,321
7255,0.976,0.172,0.224,2.3,0.9,1.67,-73.867,37.522,40.179,1,358
7275,0.976,0.172,0.224,1.53,1.46,1.25,-73.867,37.522,40.099,1,383
7296,0.976,0.172,0.224,1.6,2.3,1.53,-73.867,37.522,40.186,1,407
7317,0.972,0.176,0.224,2.02,2.3,1.53,-73.671,38.16,40.152,1,428
7337,0.98,0.188,0.22,2.85,1.74,1.46,-74.022,40.959,40.232,1,415
7358,0.972,0.188,0.216,2.43,1.88,1.53,-73.897,40.959,40.13,1,363
7379,0.972,0.18,0.216,1.6,2.16,1.74,-73.63,39.911,40.13,1,312
7400,0.976,0.188,0.22,0.63,2.02,2.16,-73.225,39.511,40.13,1,288
7420,0.98,0.184,0.212,1.95,2.71,2.16,-74.022,40.959,40.13,1,307
7442,0.972,0.192,0.232,0.97,2.5,1.74,-72.791,39.614,40.13,1,340
7462,0.972,0.184,0.204,0.56,3.55,1.74,-74.223,42.052,40.329,1,370
7483,0.968,0.176,0.232,0.14,2.16,1.67,-73.262,37.187,40.473,1,388
7504,0.972,0.172,0.22,0.49,1.6,1.46,-73.976,38.022,40.435,1,402
7525,0.964,0.18,0.212,-0.63,1.6,2.09,-73.349,41.115,40.195,1,398
7545,0.976,0.188,0.216,-0.63,1.88,2.02,-73.16,39.511,40.404,1,368
7567,0.972,0.188,0.228,-0.77,2.09,2.09,-73.059,39.022,40.404,1,357
7587,0.976,0.188,0.228,0,2.16,1.81,-73.16,39.511,40.404,1,351
7608,0.976,0.188,0.224,0.49,1.67,1.88,-73.326,40.009,40.404,1,347
7629,0.968,0.188,0.22,0.28,1.46,2.37,-73.361,40.518,40.404,1,362
7650,0.968,0.184,0.216,0.63,1.18,2.5,-73.668,40.429,40.482,1,377
7670,0.96,0.184,0.224,-0.07,0.9,2.43,-73.203,39.404,40.579,1,385
7692,0.964,0.188,0.22,0.35,0.63,2.23,-73.296,40.518,40.52,1,385
7712,0.968,0.192,0.212,0.49,0.35,2.64,-73.046,41.189,40.587,1,386
7733,0.976,0.188,0.224,0.14,-0.21,2.71,-73.414,41.115,40.556,1,361
7754,0.98,0.192,0.22,-0.42,-0.63,2.78,-73.186,40.604,40.556,1,345
7775,0.976,0.188,0.228,-0.07,-1.39,2.3,-73.16,39.511,40.556,1,328
7795,0.976,0.192,0.208,-0.97,0.28,2.02,-73.832,42.713,40.556,1,324
7817,0.968,0.192,0.208,-0.9,0.42,1.95,-73.705,42.713,40.556,1,338
7837,0.968,0.184,0.216,-0.49,-0.14,2.02,-73.668,40.429,40.605,1,504
7858,0.972,0.18,0.224,0.42,-0.28,2.37,-73.536,38.787,40.453,1,268
7878,0.968,0.184,0.216,-0.49,-0.9,2.64,-73.668,40.429,40.366,1,375
7900,0.972,0.176,0.156,0.07,-1.39,2.78,-73.076,41.701,40.474,1,369
7920,0.992,0.184,0.26,-1.11,2.37,2.3,-73.85,38.787,40.323,1,342
7941,0.968,0.192,0.204,-2.57,1.32,3.41,-73.341,43.88,40.323,1,335
7962,0.988,0.192,0.212,0.63,0.56,3.06,-73.86,42.169,40.323,1,333
7983,0.992,0.18,0.208,2.37,1.32,1.6,-74.507,40.875,40.323,1,334
8003,0.98,0.184,0.22,0.28,1.74,2.43,-73.693,39.911,40.323,1,348
8025,0.976,0.18,0.216,0.56,1.39,2.57,-73.935,39.809,40.38,1,391
8045,0.964,0.192,0.22,1.04,0.83,3.27,-73.154,41.115,40.311,1,410
8066,0.96,0.18,0.224,3.06,-0.7,3.83,-73.412,38.16,40.427,1,414
8087,0.96,0.176,0.216,3.69,-1.95,4.8,-73.895,38.533,40.38,1,393
8108,0.968,0.18,0.228,4.38,-2.16,5.36,-73.893,39.292,40.48,1,334
8128,0.98,0.176,0.216,4.17,-2.02,5.43,-74.196,39.177,40.443,1,308
8150,0.98,0.184,0.188,3.13,-1.04,5.08,-74.98,44.387,40.443,1,290
8170,0.984,0.204,0.22,0.83,-0.42,4.66,-73.049,42.842,40.443,1,289
8190,0.996,0.2,0.192,0.56,0.56,4.87,-74.451,46.173,40.443,1,295
8212,0.984,0.188,0.184,2.02,0.77,4.59,-75.038,45.619,40.437,1,332
8232,0.98,0.192,0.208,-0.97,0.97,4.17,-73.894,42.713,40.139,1,346
8253,0.972,0.188,0.196,-1.53,1.39,3.62,-74.672,44.4,40.145,1,357
8274,0.98,0.192,0.192,-3.48,2.99,3.9,-74.242,44.413,40.139,1,358
8295,0.972,0.196,0.196,-2.71,2.85,3.06,-73.535,43.88,40.288,1,335
8315,0.98,0.184,0.204,-1.74,2.3,1.6,-74.346,42.052,40.291,1,323
8337,0.976,0.184,0.208,-1.11,1.53,0.35,-74.123,41.5,40.291,1,317
8357,0.972,0.188,0.216,0.35,0.77,0.35,-73.59,41.038,40.291,1,323
8378,0.98,0.192,0.212,0.56,0.56,0.14,-73.735,42.169,40.291,1,333
8399,0.984,0.192,0.212,0.97,0.9,-0.35,-73.798,42.169,40.291,1,364
8420,0.984,0.184,0.212,0.35,0.77,-0.35,-74.083,40.959,40.042,1,368
8440,0.976,0.192,0.212,0.35,0.77,0.14,-74.138,42.666,40.226,1,376
8462,0.972,0.192,0.204,0.21,0.63,0.28,-74.086,43.834,40.207,1,383
8482,0.984,0.184,0.208,1.88,0.07,0.28,-73.879,41.569,40.376,1,487
8503,0.988,0.18,0.212,2.09,0.77,0.49,-74.284,40.336,40.378,1,281
8524,0.976,0.188,0.212,1.88,0.21,1.46,-73.816,41.569,40.378,1,339
8545,0.972,0.176,0.148,3.2,-0.42,1.88,-76.695,49.943,40.378,1,344
8565,0.988,0.176,0.24,-0.42,2.78,2.37,-73.241,36.257,40.378,1,348
8587,0.96,0.188,0.2,-2.43,2.09,3.27,-74.049,43.232,40.378,1,374
8607,0.968,0.184,0.196,0.83,1.04,2.99,-74.484,43.194,40.577,1,384
8628,0.988,0.172,0.204,2.85,1.53,1.46,-75.363,40.604,40.598,1,396
8649,0.984,0.172,0.196,1.25,2.85,2.09,-74.43,41.427,40.528,1,408
8670,0.972,0.176,0.212,1.74,2.43,2.37,-74.144,40.959,40.789,1,403
8690,0.984,0.192,0.22,1.46,2.16,2.64,-73.477,41.115,40.883,1,391
8712,0.976,0.192,0.204,2.3,1.95,3.2,-73.99,43.267,40.883,1,377
8732,0.968,0.204,0.208,2.02,1.67,3.55,-73.255,44.447,40.883,1,351
8753,0.976,0.204,0.208,2.23,1.11,3.62,-73.385,44.447,40.883,1,321
8773,0.976,0.192,0.204,2.3,0.9,2.71,-73.99,43.267,40.883,1,329
8795,0.984,0.196,0.212,2.71,1.6,2.09,-74.459,45.003,40.581,1,336
8815,0.976,0.196,0.216,1.32,1.6,1.95,-72.626,42.328,40.818,1,343
8836,0.96,0.196,0.2,0.97,1.46,2.43,-73.589,45.003,40.742,1,355
8857,0.972,0.196,0.196,2.23,0.77,2.85,-74.089,45.003,40.663,1,349
8878,0.976,0.208,0.212,0.42,0.35,2.5,-73.08,44.458,40.657,1,328
8898,0.984,0.208,0.204,1.74,0.14,2.02,-73.513,45.56,40.657,1,321
8920,0.992,0.208,0.204,0.07,1.6,2.16,-73.638,45.56,40.657,1,316
8940,0.988,0.204,0.208,-0.7,1.46,1.39,-73.576,44.447,40.657,1,315
8961,0.972,0.196,0.204,0.7,1.04,1.18,-73.778,43.857,40.657,1,326
8982,0.976,0.2,0.2,0.42,1.74,0.83,-73.653,45.003,40.664,1,344
9003,0.964,0.192,0.208,0.63,1.25,0.97,-74.236,43.232,40.867,1,359
9023,0.972,0.192,0.204,0.7,0.77,1.04,-74.209,43.834,40.625,1,361
9044,0.972,0.196,0.192,-0.63,1.95,0.77,-74.242,45.594,40.886,1,352
9065,0.968,0.196,0.2,-2.23,1.67,1.74,-73.871,44.425,40.828,1,324
9085,0.968,0.196,0.192,-1.88,0.49,1.81,-74.18,45.594,40.828,1,322
9107,0.972,0.204,0.192,-1.46,0.35,2.3,-73.928,46.739,40.828,1,415
9127,0.98,0.2,0.208,-0.28,0.97,2.57,-73.599,43.88,40.828,1,243
9148,0.98,0.2,0.208,0.21,0.9,2.16,-73.599,43.88,40.828,1,331
9168,0.976,0.188,0.156,-0.77,-0.42,2.37,-73.48,42.169,40.744,1,351
9190,0.976,0.176,0.232,-1.04,1.74,2.57,-75.122,42.514,40.874,1,361
9210,0.96,0.196,0.2,-3.27,1.81,4.1,-73.897,46.173,40.779,1,367
9231,0.972,0.184,0.208,0.77,0.7,3.55,-74.061,41.5,40.604,1,370
9252,0.988,0.184,0.2,1.6,1.11,2.71,-74.626,42.617,40.63,1,345
9273,0.98,0.188,0.216,0.63,1.95,4.1,-73.717,41.038,40.63,1,342
9293,0.984,0.196,0.212,1.18,1.95,3.9,-73.653,42.757,40.63,1,345
9315,0.976,0.196,0.212,2.37,0.97,3.41,-73.526,42.757,40.63,1,348
9335,0.968,0.208,0.212,2.64,0.77,3.48,-72.949,44.458,40.63,0,346
9356,0.964,0.196,0.204,2.5,0.56,3.13,-73.928,43.267,40.61,0,348
9377,0.972,0.196,0.192,0.77,0.14,2.99,-73.563,44.436,40.737,0,335
9398,0.98,0.196,0.196,0.56,0.42,2.99,-73.627,45.571,40.838,0,329
9418,0.964,0.2,0.184,2.85,0.21,2.99,-74.262,47.389,40.802,0,327
9440,0.984,0.212,0.232,0.35,1.25,2.37,-72.293,42.424,40.669,0,302
9460,0.984,0.208,0.192,0.28,1.81,2.3,-73.956,47.294,40.631,0,293
9481,0.98,0.2,0.204,-0.14,0.49,2.92,-73.753,44.436,40.631,0,292
9502,0.98,0.208,0.212,0.07,1.04,2.57,-73.145,44.458,40.631,0,286
9523,0.984,0.204,0.208,0,1.25,2.85,-73.844,45.003,40.631,0,289
9543,0.972,0.204,0.204,-0.21,1.39,2.92,-73.997,44.425,40.578,0,314
9565,0.976,0.192,0.196,0.07,1.32,3.41,-73.462,42.757,40.782,0,326
9585,0.968,0.188,0.204,0.35,1.11,3.48,-74.014,42.666,40.71,0,330
9606,0.972,0.2,0.2,0.9,1.04,3.13,-73.781,45.003,40.76,0,336
9626,0.984,0.2,0.204,1.39,1.18,3.62,-73.816,44.436,40.416,0,312
9648,0.984,0.2,0.2,1.39,1.39,3.55,-73.969,45.003,40.469,0,297
9668,0.98,0.2,0.188,0.97,1.74,3.62,-74.358,46.775,40.469,0,291
9689,0.98,0.204,0.196,0.56,1.81,3.27,-73.903,46.149,40.469,0,318
9710,0.98,0.204,0.2,0.77,1.53,3.06,-73.903,43.857,40.469,0,350
9731,0.98,0.2,0.204,0.35,1.74,3.34,-73.599,43.88,40.469,0,219
9751,0.976,0.2,0.2,3.06,0.07,2.78,-75.275,50.083,40.706,0,344
9773,0.972,0.2,0.228,1.18,-0.63,3.41,-72.676,41.26,40.584,0,344
9793,0.976,0.188,0.184,-1.81,2.09,2.57,-74.921,45.619,40.712,0,352
9814,0.972,0.2,0.18,-0.7,1.53,3.97,-74.532,48.016,40.508,0,341
9835,0.98,0.204,0.208,1.32,0.97,3.83,-73.449,44.447,40.511,0,332
9856,0.992,0.192,0.184,3.06,0.56,2.3,-74.999,46.222,40.511,0,330
9876,0.988,0.2,0.196,1.74,2.37,2.92,-74.181,45.582,40.511,0,336
9897,0.992,0.2,0.2,0.63,3.2,3.27,-73.966,46.149,40.511,0,345
9918,0.98,0.196,0.196,1.74,2.71,3.41,-74.212,45.003,40.511,0,375
9938,0.98,0.196,0.196,1.53,1.74,3.76,-74.236,46.775,40.66,0,378
9960,0.972,0.192,0.196,1.39,2.02,3.55,-74.242,44.413,40.572,0,354
9980,0.976,0.192,0.196,0.14,2.43,3.55,-74.304,44.413,40.578,0,338
10001,0.988,0.196,0.196,0.63,2.99,3.41,-74.334,45.003,40.431,0,321
10022,0.984,0.208,0.192,0.07,3.27,3.55,-73.956,47.294,40.521,0,302
10043,0.988,0.204,0.2,-0.07,4.45,2.64,-73.878,45.571,40.521,0,296
10063,0.984,0.192,0.184,0.35,4.73,3.06,-74.209,43.834,40.521,0,297
10085,0.984,0.196,0.2,0.97,4.52,2.92,-73.903,43.857,40.521,0,300
10105,0.976,0.196,0.196,-0.7,4.17,2.92,-73.563,44.436,40.521,0,321
10127,0.976,0.192,0.208,-0.83,3.69,2.57,-73.832,42.713,40.743,0,336
10147,0.984,0.188,0.208,-0.42,4.03,2.57,-74.102,42.112,40.659,0,343
10168,0.972,0.188,0.212,-0.42,3.97,2.71,-73.753,41.569,40.596,0,351
10189,0.976,0.184,0.208,1.04,3.34,2.92,-74.123,41.5,40.681,0,338
10210,0.976,0.2,0.204,1.46,2.85,2.85,-73.69,44.436,40.645,0,324
10230,0.984,0.2,0.2,1.18,2.92,2.92,-73.969,45.003,40.645,0,317
10252,0.98,0.192,0.208,1.74,2.99,2.92,-74.059,45.582,40.645,0,307
10272,0.976,0.196,0.2,0.9,3.27,2.78,-73.69,44.436,40.645,0,308
10293,0.976,0.2,0.196,0.49,3.41,2.64,-74.086,43.834,40.645,0,332
10314,0.964,0.192,0.204,1.6,2.3,1.88,-73.801,43.267,41.047,0,465
10335,0.98,0.196,0.208,0.35,3.48,2.71,-73.747,43.302,40.747,0,250
10355,0.972,0.196,0.204,2.99,1.74,2.71,-73.778,43.857,40.712,0,372
10377,0.96,0.2,0.184,0,0.83,3.34,-74.199,47.389,40.742,0,360
10397,0.98,0.188,0.204,-2.02,2.64,1.6,-74.2,42.666,40.772,0,341
10419,0.976,0.196,0.208,-2.37,3.62,3.76,-74.236,46.775,40.772,0,338
10439,0.976,0.204,0.204,1.39,1.25,3.83,-72.983,42.842,40.772,0,336
10460,0.984,0.192,0.216,2.5,1.25,2.23,-73.23,43.902,40.772,0,342
10481,0.976,0.196,0.224,2.43,1.46,2.02,-73.046,41.189,40.772,0,358
10502,0.98,0.192,0.204,2.09,2.23,1.39,-74.052,43.267,40.977,0,390
10522,0.984,0.2,0.208,1.25,3.41,2.5,-73.662,43.88,41.053,0,407
10544,0.968,0.192,0.208,2.37,2.09,2.3,-73.705,42.713,40.803,0,403
10564,0.964,0.196,0.212,1.81,1.81,2.71,-73.332,42.757,41.003,0,373
10585,0.976,0.192,0.208,1.11,1.6,3.2,-73.832,42.713,41.111,0,317
10606,0.976,0.204,0.208,-0.07,1.6,3.34,-73.57,43.335,41.111,0,298
10627,0.976,0.2,0.208,1.88,1.74,2.85,-73.778,43.857,41.111,0,288
10648,0.968,0.216,0.236,1.11,1.88,2.78,-72.525,42.377,41.111,0,290
10669,0.976,0.196,0.204,-0.14,2.71,3.48,-73.841,43.857,41.111,0,298
10689,0.964,0.188,0.216,1.04,2.23,3.41,-73.461,41.038,41.148,0,325
10711,0.968,0.184,0.208,0.21,1.74,3.2,-73.998,41.5,41.207,0,335
10731,0.968,0.192,0.216,-1.11,0.97,2.3,-73.382,41.637,41.009,0,340
10752,0.984,0.196,0.208,-1.53,2.3,3.06,-73.81,43.302,40.934,0,347
10773,0.984,0.204,0.216,-2.09,2.02,4.03,-73.367,42.224,41.009,0,320
10793,0.968,0.196,0.216,-2.43,1.46,3.62,-73.156,42.801,41.009,0,310
10814,0.972,0.196,0.216,-0.97,0.77,3.55,-73.221,42.801,41.009,0,304
10835,0.976,0.2,0.212,-0.35,0.97,4.38,-73.379,43.335,41.009,0,304
10856,0.968,0.192,0.216,0.28,0.83,4.03,-73.382,41.637,41.009,0,309
10877,0.968,0.192,0.208,0.28,1.25,3.55,-73.705,42.713,40.961,0,333
10898,0.968,0.2,0.208,0.07,0.63,3.55,-73.406,43.88,41.004,0,352
10918,0.968,0.188,0.216,-1.11,0.77,3.55,-73.526,41.038,40.811,0,345
10940,0.972,0.192,0.216,-0.56,0.49,3.34,-73.447,41.637,40.717,0,349
10960,0.972,0.188,0.212,-0.56,0.07,2.23,-73.753,44.436,40.795,0,324
10981,0.972,0.2,0.212,-1.67,0.97,3.55,-73.128,42.277,40.726,0,433
11002,0.976,0.196,0.208,0.49,0.28,3.55,-73.735,42.169,40.726,0,253
11023,0.976,0.192,0.228,-2.23,-0.07,3.83,-73.023,40.104,40.726,0,251
11043,0.972,0.196,0.176,2.02,-2.02,3.2,-74.842,48.081,40.726,0,307
11065,0.976,0.188,0.216,-3.34,0.7,3.27,-73.654,41.038,40.71,0,341
11085,0.972,0.18,0.208,-4.1,1.88,2.09,-74.204,40.875,40.559,0,358
11106,0.968,0.192,0.192,0.14,0.7,3.27,-74.336,45.003,40.571,0,368
11127,0.972,0.192,0.212,1.18,0.14,2.92,-74.43,41.427,40.465,0,376
11148,0.976,0.18,0.208,2.64,-1.18,2.23,-73.554,40.518,40.644,0,366
11169,0.976,0.196,0.216,0.83,0.28,2.64,-73.128,42.277,40.591,0,364
11190,0.976,0.204,0.216,1.11,0,2.23,-73.075,43.367,40.591,0,372
11210,0.988,0.2,0.204,1.11,0.9,3.13,-73.878,44.436,40.591,0,371
11232,0.976,0.196,0.208,0.14,0.83,2.92,-73.684,43.302,40.591,0,350
11252,0.972,0.184,0.2,0.56,0.7,3.06,-74.385,42.617,40.591,0,337
11273,0.976,0.188,0.2,-1.81,1.18,3.27,-74.297,43.232,40.683,0,327
11294,0.976,0.188,0.208,-0.63,1.46,3.13,-74.285,42.052,40.492,0,328
11315,0.972,0.192,0.2,1.53,1.11,2.71,-73.023,40.104,40.553,0,331
11336,0.976,0.196,0.2,0.9,2.43,2.5,-73.841,46.149,40.414,0,321
11357,0.98,0.196,0.22,-0.28,2.23,3.06,-73.272,41.701,40.392,0,308
11377,0.98,0.196,0.204,1.81,1.39,2.78,-73.903,43.857,40.392,0,303
11399,0.976,0.2,0.208,-0.42,1.18,3.06,-73.535,43.88,40.392,0,300
11419,0.984,0.2,0.208,0.42,1.46,2.64,-73.662,43.88,40.392,0,299
11440,0.98,0.192,0.204,-0.35,1.95,2.71,-74.052,43.267,40.392,0,320
11461,0.976,0.184,0.208,-1.74,1.39,1.53,-74.123,41.5,40.547,0,331
11482,0.976,0.188,0.212,0.35,0.83,2.43,-74.083,40.959,40.492,0,337
11502,0.972,0.188,0.208,-0.42,1.18,2.99,-74.223,42.052,40.374,0,340
11524,0.972,0.184,0.2,0.21,1.18,3.27,-74.148,43.834,40.641,0,331
11544,0.984,0.192,0.208,0.14,1.39,3.27,-73.956,42.713,40.555,0,312
11566,0.98,0.2,0.204,0.49,1.53,3.06,-73.753,44.436,40.555,0,305
11586,0.976,0.2,0.204,-0.35,1.46,3.2,-73.69,44.436,40.555,0,305
11607,0.984,0.188,0.208,0.77,1.04,3.13,-74.102,42.112,40.555,0,303
11628,0.972,0.188,0.208,0.42,0.77,3.2,-73.915,42.112,40.555,0,323
11649,0.96,0.192,0.208,0.14,-0.21,1.95,-74.223,42.052,40.645,0,339
11669,0.972,0.188,0.2,0.9,1.04,2.64,-73.978,42.112,40.598,0,350
11691,0.972,0.188,0.204,0.28,0.83,3.34,-74.086,43.834,40.539,0,354
11711,0.984,0.192,0.208,0.42,0.97,3.34,-73.956,42.713,40.402,0,361
11731,0.972,0.2,0.22,0.42,-0.35,2.43,-72.997,42.277,40.494,0,330
11753,0.98,0.192,0.208,0.35,0.83,2.78,-73.894,42.713,40.494,0,317
11773,0.988,0.2,0.204,-0.49,1.25,3.76,-73.878,44.436,40.494,0,315
11794,0.98,0.188,0.208,0.7,0.49,3.55,-74.04,42.112,40.494,0,454
11815,0.976,0.188,0.208,0.07,0.7,3.48,-73.978,42.112,40.494,0,253
11836,0.976,0.192,0.224,-1.81,-0.07,3.48,-74.138,42.666,40.257,0,293
11857,0.964,0.184,0.18,2.3,-1.53,1.95,-74.946,47.493,40.206,0,353
11878,0.984,0.188,0.204,-3.62,2.09,2.99,-74.181,39.809,40.398,0,364
11898,0.976,0.176,0.192,-2.99,3.62,3.34,-75.063,42.514,40.382,0,369
11920,0.976,0.2,0.204,1.46,0.83,4.38,-73.69,44.436,40.163,0,348
11940,0.984,0.188,0.212,1.74,0.07,3.48,-73.941,41.569,40.163,0,347
11961,0.98,0.18,0.208,1.95,-0.42,2.23,-74.327,40.875,40.163,0,350
11982,0.984,0.192,0.204,0.49,0.28,1.74,-74.114,43.267,40.163,0,359
12003,0.988,0.196,0.208,2.02,0.28,1.74,-74.358,43.232,40.163,0,379
12023,0.984,0.188,0.192,1.39,1.39,3.2,-74.576,43.81,40.357,0,408
12045,0.972,0.18,0.192,2.37,1.04,2.92,-73.99,43.267,40.126,0,398
12065,0.98,0.184,0.2,0.42,1.74,2.85,-74.506,42.617,40.447,0,367
12087,0.976,0.188,0.2,-0.07,1.74,2.92,-74.297,43.232,40.258,0,343
12107,0.98,0.196,0.208,0.83,2.3,2.99,-73.747,43.302,40.095,0,309
12128,0.984,0.188,0.212,2.78,1.95,2.43,-73.941,41.569,40.095,0,299
12149,0.98,0.196,0.192,1.88,2.57,2.43,-74.365,45.594,40.095,0,298
12170,0.976,0.196,0.208,0.56,2.5,2.92,-73.684,43.302,40.095,0,299
12190,0.984,0.184,0.208,1.67,1.67,2.43,-74.297,43.232,40.095,0,303
12212,0.972,0.192,0.196,0.28,1.74,2.37,-73.99,43.267,40.234,0,330
12232,0.976,0.188,0.2,-0.35,2.5,2.3,-74.358,43.232,40.252,0,338
12253,0.984,0.184,0.212,-0.97,2.85,2.5,-74.083,40.959,40.416,0,342
12274,0.972,0.18,0.212,-0.9,2.37,2.57,-74.039,40.336,40.314,0,344
12295,0.984,0.188,0.208,-0.28,2.16,2.5,-74.102,42.112,40.435,0,320
12316,0.98,0.192,0.208,0.14,2.16,2.3,-73.894,42.713,40.435,0,310
12337,0.98,0.192,0.204,0.42,2.23,2.5,-74.052,43.267,40.435,0,304
12357,0.98,0.196,0.208,0.7,2.02,2.3,-73.966,43.857,40.435,1,304
12379,0.984,0.192,0.208,0.56,2.16,2.02,-73.903,43.857,40.435,1,307
12399,0.98,0.184,0.204,0.7,2.09,2.09,-73.735,42.169,40.367,1,332
12420,0.972,0.188,0.212,0.7,2.02,2.3,-73.753,41.569,40.451,1,344
12441,0.972,0.192,0.196,0.56,1.39,2.3,-74.242,44.413,40.228,1,354
12462,0.976,0.188,0.212,1.46,0.77,2.3,-73.816,41.569,40.465,1,362
12483,0.98,0.196,0.212,0.9,0.42,2.43,-73.59,42.757,40.494,1,345
12504,0.988,0.196,0.212,0.9,1.11,2.3,-73.716,42.757,40.588,1,326
12524,0.984,0.2,0.204,-0.42,1.39,2.5,-73.844,45.003,40.588,1,312
12546,0.984,0.196,0.204,-0.28,1.74,2.71,-73.747,43.302,40.588,1,313
12566,0.988,0.196,0.212,0.7,1.11,2.37,-73.414,41.115,40.588,1,445
12587,0.976,0.192,0.216,-0.14,1.18,2.02,-73.511,41.637,40.62,1,286
12608,0.972,0.188,0.216,-1.46,0,2.5,-73.59,41.038,40.508,1,284
12628,0.972,0.188,0.168,1.46,-0.21,2.02,-75.464,48.219,40.269,1,354
12649,0.98,0.184,0.228,-2.3,1.53,2.02,-73.361,38.907,40.384,1,367
12670,0.984,0.188,0.212,-3.06,1.95,2.5,-73.941,41.569,40.547,1,354
12691,0.964,0.2,0.192,0.42,0.49,3.27,-73.96,46.173,40.441,1,344
12712,0.988,0.196,0.22,3.13,-0.21,1.95,-74.144,40.959,40.441,1,343
12733,0.988,0.188,0.204,2.16,0.21,1.32,-74.163,42.112,40.441,1,346
12753,0.984,0.192,0.212,0.9,1.39,2.09,-73.716,42.757,40.441,1,360
12775,0.976,0.196,0.204,0.77,1.53,2.37,-73.841,43.857,40.441,1,396
12795,0.968,0.192,0.204,1.67,1.32,2.16,-73.865,43.267,40.463,1,415
12816,0.968,0.192,0.2,2.16,0.7,2.3,-74.023,43.834,40.663,1,395
12837,0.972,0.188,0.2,0.97,0.49,2.5,-74.236,43.232,40.78,1,360
12858,0.972,0.196,0.204,0,0.42,2.85,-73.778,43.857,40.659,1,322
12878,0.98,0.204,0.22,0.14,0.9,2.78,-73.878,44.436,40.553,1,298
12900,0.992,0.192,0.2,0.56,0.83,2.85,-72.525,42.377,40.553,1,293
12920,0.984,0.204,0.22,0.28,2.64,2.43,-74.872,47.44,40.553,1,292
12941,0.98,0.192,0.216,-0.56,1.25,2.99,-73.575,41.637,40.553,1,292
12962,0.976,0.184,0.196,0.28,0.14,2.43,-74.606,43.194,40.553,1,318
12983,0.976,0.196,0.2,-1.46,0.35,2.78,-73.997,44.425,40.496,1,331
13004,0.976,0.2,0.208,-0.9,0.63,2.78,-73.535,43.88,40.723,1,336
13025,0.98,0.196,0.204,-1.46,1.18,3.13,-73.903,43.857,40.488,1,339
13045,0.976,0.192,0.212,-0.21,0.7,3.06,-73.672,42.169,40.647,1,331
13067,0.976,0.192,0.204,0.7,-0.14,3.27,-73.672,42.169,40.594,1,312
13087,0.988,0.196,0.208,0.9,-0.14,3.06,-73.798,42.169,40.594,1,306
13108,0.984,0.196,0.2,0.77,0.9,3.13,-74.304,44.413,40.594,1,304
13129,0.984,0.196,0.204,0.63,0.77,3.97,-73.966,43.857,40.594,1,300
13150,0.972,0.192,0.192,0.07,0.7,3.9,-74.398,45.003,40.594,1,319
13170,0.976,0.188,0.2,0.63,0.42,3.9,-74.297,43.232,40.527,1,341
13192,0.976,0.184,0.204,0.97,-0.28,4.03,-74.285,42.052,40.531,1,349
13212,0.976,0.184,0.208,1.11,-0.28,3.97,-74.123,41.5,40.324,1,346
13234,0.972,0.188,0.188,-0.07,0,4.66,-74.672,45.606,40.359,1,345
13254,0.98,0.196,0.196,-0.83,0.42,5.22,-74.304,45.594,40.252,1,323
13275,0.98,0.196,0.192,0.7,-0.77,5.01,-73.907,45.003,40.252,1,450
13296,0.988,0.208,0.2,0.77,0.07,4.66,-73.724,46.127,40.252,1,238
13317,0.992,0.204,0.204,-0.7,-0.35,3.83,-73.79,45.003,40.252,1,298
13337,0.984,0.18,0.14,1.88,0.9,2.85,-76.958,52.129,40.252,1,319
13359,0.988,0.172,0.244,-2.02,2.78,2.71,-73.193,35.183,40.308,1,350
13379,0.968,0.176,0.2,-2.09,1.53,3.83,-74.618,41.351,40.116,1,364
13400,0.968,0.188,0.18,0.35,0.77,3.97,-74.956,46.249,40.051,1,377
13421,0.98,0.176,0.192,3.2,0.49,2.23,-75.655,42.458,40.178,1,381
13442,0.996,0.176,0.184,1.46,1.6,2.99,-74.27,43.834,40.19,1,366
13463,0.984,0.184,0.204,1.53,1.74,3.27,-74.018,42.713,40.19,1,370
13484,0.996,0.192,0.2,1.39,2.5,3.34,-74.451,43.834,40.19,1,376
13504,0.98,0.188,0.2,1.04,1.88,3.55,-74.358,43.232,40.19,1,375
13526,0.984,0.184,0.2,1.04,1.53,3.2,-74.566,42.617,40.19,1,360
13546,0.972,0.192,0.192,1.04,1.32,2.99,-74.398,45.003,40.02,1,355
13566,0.976,0.192,0.192,0.97,1.39,2.78,-74.459,45.003,40.079,1,340
13588,0.98,0.196,0.192,0.35,1.6,2.43,-74.855,46.851,40.282,1,342
13608,0.98,0.196,0.2,-1.25,1.11,2.85,-73.59,42.757,40.198,1,344
13629,0.988,0.196,0.188,-2.16,1.81,3.62,-74.665,46.812,40.209,1,321
13650,0.988,0.18,0.176,0.14,1.18,3.48,-75.711,45.647,40.209,1,319
13671,0.988,0.192,0.2,-0.97,1.25,3.69,-74.331,43.834,40.209,1,319
13692,0.996,0.184,0.196,-0.97,2.02,2.57,-74.901,43.194,40.209,1,328
13713,0.996,0.18,0.208,-1.39,3.55,2.3,-74.567,40.875,40.209,1,333
13733,0.984,0.164,0.2,-0.35,4.03,3.06,-75.279,39.355,40.101,1,365
13755,0.972,0.176,0.204,0.7,3.34,3.34,-74.618,41.351,39.909,1,375
13775,0.964,0.184,0.2,1.11,2.16,3.41,-74.513,40.789,40.027,1,381
13796,0.976,0.184,0.196,2.09,0.97,3.55,-74.652,41.99,40.129,1,389
13817,0.988,0.192,0.192,1.67,0.56,3.76,-74.638,45.003,40.021,1,366
13838,0.988,0.192,0.196,1.18,0.28,3.06,-74.485,44.413,39.977,1,363
13859,0.988,0.196,0.204,1.04,0.42,2.57,-74.027,43.857,39.977,1,348
13880,0.988,0.196,0.192,0.42,0.83,2.37,-74.485,45.594,39.977,1,341
13900,0.988,0.192,0.196,-0.42,1.39,2.09,-74.485,44.413,39.977,1,341
13922,0.98,0.176,0.2,1.18,0.56,1.67,-74.797,41.351,39.915,1,445
13942,0.976,0.184,0.196,1.81,0.77,1.53,-73.816,41.569,39.986,1,338
13963,0.988,0.184,0.208,2.64,-0.83,0.97,-74.566,42.617,40.104,1,311
13984,0.988,0.184,0.196,2.71,-0.56,0.83,-76.474,52.553,40.237,1,371
14005,0.98,0.176,0.248,1.25,-0.42,1.46,-72.766,35.365,40.258,1,359
14026,0.964,0.188,0.184,-0.14,-1.95,1.11,-74.742,45.619,40.273,1,350
14047,0.98,0.196,0.192,0.83,-0.9,2.02,-74.365,45.594,40.273,1,343
14067,0.988,0.176,0.2,2.99,-1.04,0.9,-74.915,41.351,40.273,1,346
14089,0.992,0.184,0.184,1.46,0.63,2.3,-75.307,45.003,40.273,1,347
14109,0.98,0.184,0.192,0.21,0.21,2.64,-74.365,45.594,40.252,1,376
14130,0.976,0.2,0.188,0.07,0.49,2.16,-74.425,45.594,40.184,1,393
14151,0.984,0.196,0.184,0.14,0.42,1.53,-74.297,46.775,40.104,1,404
14172,0.972,0.192,0.18,1.25,0,1.39,-74.855,46.851,40.245,1,386
14193,0.984,0.2,0.188,0.63,0.77,1.46,-74.419,46.775,40.267,1,342
14214,0.988,0.2,0.188,1.46,0.35,1.04,-74.479,46.775,40.373,1,314
14234,0.992,0.2,0.184,0.35,0.7,0.97,-74.685,47.389,40.373,1,300
14256,0.996,0.196,0.188,0.21,0.56,1.04,-74.753,46.197,40.373,1,294
14276,0.98,0.196,0.208,-0.97,0.83,1.46,-74.797,48.656,40.373,1,297
14297,0.976,0.2,0.172,1.53,0.07,1.67,-75.015,46.249,40.373,1,322
14318,0.972,0.184,0.188,0.42,-0.77,1.18,-74.98,45.619,40.39,1,335
14339,0.98,0.192,0.184,0.07,0,1.46,-74.823,46.222,40.223,1,342
14359,0.98,0.196,0.188,0.28,0.97,1.6,-74.516,46.197,40.381,1,349
14381,0.988,0.2,0.188,-0.97,1.39,1.81,-74.479,46.775,40.476,1,334
14401,0.976,0.2,0.192,1.46,0.14,1.6,-74.148,46.173,40.356,1,316
14423,0.972,0.208,0.188,1.46,0.07,1.74,-73.915,47.895,40.356,1,311
14443,0.98,0.196,0.184,1.04,0.21,2.02,-74.665,46.812,40.356,1,311
14464,0.988,0.192,0.18,1.74,0.7,2.23,-74.941,46.222,40.356,1,315
14485,0.984,0.196,0.188,0.21,0.83,2.37,-74.385,47.389,40.356,1,333
14505,0.968,0.196,0.184,1.04,0.35,2.57,-74.782,48.081,40.418,1,338
14526,0.96,0.2,0.176,0,0.35,2.57,-74.495,48.656,40.348,1,344
14547,0.968,0.196,0.168,0.97,0.35,3.06,-75.073,49.402,40.439,1,350
14568,0.976,0.2,0.176,1.25,0.49,3.27,-74.738,48.656,40.328,0,437
14588,0.988,0.204,0.188,0.77,0.97,3.34,-74.321,47.341,40.325,0,262
14610,0.992,0.208,0.188,1.67,0.97,3.27,-74.223,47.895,40.325,0,305
14630,0.98,0.204,0.128,1.11,-0.56,2.85,-74.123,48.507,40.325,0,306
14652,0.992,0.192,0.228,0.83,1.46,2.71,-75.448,50.652,40.325,0,315
14672,0.976,0.208,0.176,-2.85,1.53,4.52,-74.504,51.076,40.325,0,334
14693,0.98,0.192,0.188,0.14,0.7,3.69,-74.672,45.606,40.515,0,351
14714,0.996,0.184,0.172,2.64,1.25,1.46,-75.814,46.934,40.239,0,362
14735,0.988,0.196,0.176,0.63,3.13,2.43,-75.076,48.081,40.208,0,370
14755,0.984,0.188,0.18,1.04,2.5,2.64,-75.19,46.249,40.313,0,374
14777,0.984,0.204,0.184,0.9,2.09,3.2,-74.406,47.954,40.478,0,360
14797,0.98,0.208,0.188,2.09,1.04,3.97,-74.04,47.895,40.478,0,352
14819,0.98,0.204,0.176,2.02,0.49,3.9,-74.327,49.131,40.478,0,331
14839,0.992,0.204,0.18,1.04,1.04,3.48,-74.306,48.507,40.478,0,308
14860,0.988,0.204,0.192,0.83,1.46,3.55,-74.593,48.016,40.478,0,311
14881,0.984,0.192,0.172,1.74,1.18,3.69,-75.326,48.149,40.459,0,324
14902,0.976,0.2,0.212,0.7,0.63,3.83,-73.379,43.335,40.478,0,335
14922,0.988,0.2,0.164,0.49,0.83,3.83,-75.336,50.652,40.537,0,338
14944,0.984,0.2,0.184,1.25,-0.42,4.31,-74.566,47.389,40.29,0,340
14964,0.988,0.208,0.192,0.49,0.49,3.76,-74.018,47.294,40.325,0,320
14985,0.984,0.208,0.188,0.14,0.28,3.48,-74.366,48.507,40.325,0,313
15006,0.992,0.212,0.184,-0.9,2.16,3.62,-74.684,49.131,40.325,0,311
15027,0.996,0.204,0.18,-0.63,0.97,3.97,-74.635,46.197,40.325,0,305
15048,0.976,0.192,0.172,-0.07,1.11,3.62,-75.211,48.149,40.325,0,314
15069,0.972,0.184,0.18,0.35,0.77,3.48,-75.173,45.633,40.435,0,333
15089,0.984,0.188,0.18,-0.14,1.11,3.69,-75.19,46.249,40.137,0,345
15111,0.984,0.184,0.176,0,0.77,3.48,-75.498,46.276,40.082,0,347
15131,0.988,0.18,0.176,0.9,0.21,3.83,-75.711,45.647,40.202,0,358
15153,0.988,0.196,0.176,0.28,0.49,3.34,-74.539,46.775,40.106,0,330
15173,0.988,0.2,0.18,0,0.63,3.41,-74.744,47.389,40.106,0,317
15194,0.992,0.192,0.176,-0.07,1.18,3.34,-74.466,47.954,40.106,0,315
15215,0.988,0.196,0.176,0,0.97,3.2,-75.076,48.081,40.106,0,323
15236,0.984,0.184,0.184,1.39,0.14,3.27,-75.193,45.003,40.106,0,392
15256,0.984,0.188,0.176,0.42,1.32,3.06,-75.339,46.892,40.1,0,254
15278,0.984,0.188,0.16,3.34,-0.35,2.71,-75.922,49.604,39.989,0,359
15298,0.976,0.192,0.16,1.04,-0.56,2.99,-75.642,50.198,39.95,0,359
15319,0.992,0.18,0.164,-1.46,2.09,1.46,-76.214,47.667,39.867,0,361
15340,0.98,0.204,0.156,-0.49,0.83,2.85,-75.991,52.947,40.054,0,343
15361,0.992,0.196,0.172,1.18,-0.07,2.43,-75.267,45.619,40.069,0,334
15381,1,0.188,0.168,2.23,-0.35,1.67,-75.834,49.501,40.069,0,334
15403,1,0.192,0.168,2.02,1.25,2.09,-75.693,48.818,40.069,0,340
15423,1,0.204,0.172,1.11,3.06,2.85,-75.065,49.868,40.069,0,350
15444,0.984,0.192,0.164,1.32,2.09,2.64,-75.613,49.501,40.057,0,385
15465,0.984,0.196,0.172,1.81,1.81,2.85,-75.163,48.735,40.143,0,384
15485,0.98,0.192,0.168,0.9,0.9,2.02,-75.414,48.818,40.048,0,368
15507,0.984,0.192,0.168,1.53,1.25,1.74,-75.363,49.402,39.83,0,345
15527,0.996,0.2,0.18,0.9,2.57,2.71,-75.367,49.973,40.176,0,316
15548,0.992,0.2,0.168,1.81,2.78,1.74,-75.833,51.487,40.201,0,308
15569,0.992,0.2,0.18,-0.28,4.1,2.02,-74.83,48.016,40.201,0,302
15590,0.988,0.196,0.156,0.7,4.38,2.37,-75.778,51.487,40.201,0,305
15611,0.992,0.196,0.184,1.11,2.99,2.43,-74.842,46.812,40.201,0,306
15632,0.988,0.192,0.168,0.97,3.27,2.16,-75.527,48.818,40.201,0,333
15652,0.988,0.2,0.176,0.56,3.06,2.02,-74.915,48.656,40.339,0,342
15674,0.984,0.196,0.168,0.28,3.55,2.43,-75.163,48.735,40.279,0,348
15694,0.98,0.192,0.172,0.83,3.27,1.95,-75.269,48.149,40.294,0,350
15715,0.98,0.2,0.168,0.7,2.71,1.88,-74.184,48.507,40.478,0,335
15736,0.992,0.204,0.172,1.18,2.64,1.95,-74.95,49.868,40.408,0,319
15757,0.988,0.208,0.172,0.14,2.37,1.6,-74.726,50.416,40.408,0,315
15778,0.992,0.196,0.176,0.7,2.99,1.81,-75.134,48.081,40.408,0,312
15799,0.992,0.196,0.172,1.25,2.57,2.78,-75.277,48.735,40.408,0,311
15819,0.98,0.2,0.172,1.11,2.37,2.78,-74.94,49.308,40.408,0,331
15841,0.972,0.2,0.18,0,2.37,1.46,-74.532,48.016,40.583,0,344
15861,0.984,0.2,0.176,0.97,3.13,2.43,-75.583,48.818,40.511,0,357
15882,0.98,0.196,0.176,0.63,2.64,2.57,-74.593,48.016,40.49,0,358
15903,0.976,0.2,0.176,0.35,2.71,2.43,-74.466,47.954,40.465,0,340
15924,0.988,0.2,0.176,1.04,2.64,2.57,-74.915,48.656,40.496,0,321
15945,0.98,0.208,0.172,-0.83,3.48,2.78,-74.607,50.416,40.496,0,316
15966,0.984,0.196,0.184,1.25,2.37,1.74,-74.725,46.812,40.496,0,441
15986,0.988,0.2,0.184,1.25,3.41,1.81,-74.626,47.389,40.496,0,237
16008,0.992,0.204,0.184,1.46,3.27,2.5,-74.526,47.954,40.496,0,318
16028,0.972,0.2,0.14,3.2,1.11,3.06,-73.998,48.507,40.713,0,347
16049,0.984,0.2,0.208,-1.25,4.24,1.53,-74.114,46.739,40.591,0,361
16070,0.972,0.2,0.184,-1.53,5.08,2.16,-75.357,50.778,40.558,0,368
16091,0.988,0.204,0.2,1.81,2.5,3.13,-73.878,45.571,40.704,0,366
16112,0.992,0.208,0.176,2.85,2.37,1.46,-74.647,49.767,40.573,0,354
16133,0.988,0.212,0.184,0.97,2.99,0.63,-74.144,49.048,40.573,0,353
16153,0.996,0.216,0.172,1.67,4.73,0.7,-74.511,51.474,40.573,0,360
16175,0.992,0.208,0.18,1.04,5.01,1.46,-74.507,49.131,40.573,0,369
16195,0.968,0.204,0.184,2.64,3.9,1.67,-74.545,46.812,40.573,0,388
16216,0.968,0.204,0.18,2.85,3.62,1.88,-75.063,47.493,40.957,0,381
16237,0.964,0.196,0.18,2.23,3.2,0.83,-74.814,47.44,41.028,0,359
16258,0.984,0.204,0.188,0.7,4.1,2.57,-74.261,47.341,40.943,0,348
16278,0.984,0.208,0.188,1.81,3.9,2.3,-74.102,47.895,40.827,0,335
16300,0.984,0.216,0.2,1.67,3.55,2.37,-73.35,47.206,41.08,0,313
16320,0.988,0.212,0.176,1.39,5.7,2.16,-74.423,50.305,41.08,0,308
16342,0.972,0.216,0.204,0.77,4.31,2.78,-73.009,46.64,41.08,0,305
16362,0.984,0.208,0.196,0.56,4.03,2.64,-73.81,46.705,41.08,0,306
16382,0.976,0.212,0.196,-1.53,4.1,3.06,-73.526,47.249,41.08,0,317
16404,0.98,0.212,0.196,-2.85,4.87,3.41,-73.367,47.783,41.166,0,334
16424,0.968,0.212,0.196,-3.34,5.08,3.76,-73.295,46.105,41.149,0,340
16445,0.972,0.2,0.208,-2.43,4.59,3.83,-73.471,43.88,41.001,0,343
16466,0.968,0.2,0.192,-1.11,3.48,3.48,-74.023,46.173,41.154,0,345
16487,0.976,0.208,0.2,-1.39,3.2,3.27,-73.535,46.127,41.149,0,320
16507,0.976,0.212,0.2,-1.88,3.06,3.48,-73.379,46.672,41.149,0,313
16529,0.976,0.212,0.196,-1.18,2.71,3.48,-73.526,47.249,41.149,0,309
16549,0.98,0.212,0.2,-0.56,2.16,3.2,-73.08,45.549,41.149,0,308
16571,0.984,0.216,0.208,-0.7,1.74,3.41,-73.385,44.447,41.149,0,316
16591,0.972,0.2,0.2,-0.49,1.67,3.34,-73.621,46.705,41.17,0,335
16612,0.972,0.2,0.204,0,1.25,3.76,-73.627,44.436,41.015,0,355
16633,0.972,0.2,0.208,0,0.9,3.69,-73.471,43.88,40.862,0,353
16654,0.964,0.196,0.2,-0.9,1.25,3.41,-73.808,44.425,41.095,0,346
16674,0.976,0.208,0.2,-0.42,0.77,3.06,-73.535,46.127,40.898,0,324
16696,0.98,0.208,0.192,-1.81,2.02,3.76,-73.894,47.294,40.898,0,332
16716,0.976,0.2,0.204,0.07,1.11,3.48,-73.69,44.436,40.898,0,423
16737,0.984,0.204,0.208,-1.95,1.6,4.24,-73.21,45.549,40.898,0,202
16758,0.98,0.208,0.2,2.43,0.07,2.64,-75.299,48.818,40.898,0,320
16779,0.964,0.212,0.176,-1.95,0.14,3.48,-73.367,42.224,40.973,0,343
16799,0.984,0.188,0.204,-4.17,3.06,3.69,-74.261,42.666,41,0,356
16821,0.964,0.2,0.184,-2.92,2.37,4.94,-74.262,47.389,40.824,0,363
16841,0.972,0.204,0.212,-0.21,0.42,4.45,-73.165,43.902,40.803,0,369
16863,0.98,0.196,0.2,0.83,-0.07,3.06,-74.059,44.425,40.674,0,356
16883,0.98,0.204,0.208,0.21,0.63,2.85,-73.449,44.447,40.637,0,356
16904,0.98,0.196,0.2,-0.14,0.14,2.09,-73.409,45.003,40.637,0,363
16925,0.984,0.2,0.2,1.25,0.42,2.85,-73.878,45.571,40.637,0,370
16946,0.984,0.208,0.196,0.97,0.77,3.9,-73.753,45.571,40.637,0,365
16966,0.968,0.188,0.2,2.23,-0.42,3.69,-74.174,43.232,40.616,0,362
16988,0.98,0.192,0.192,0.63,0.07,3.13,-74.519,45.003,40.539,0,337
17008,0.98,0.196,0.196,-0.63,0.14,2.43,-74.212,45.003,40.633,0,329
17029,0.984,0.196,0.188,1.53,1.81,3.06,-74.576,46.197,40.663,0,327
17050,0.984,0.204,0.22,1.95,1.81,2.99,-73.049,42.842,40.557,0,311
17071,0.98,0.204,0.176,0.56,2.16,2.85,-74.633,49.218,40.568,0,305
17091,0.976,0.204,0.216,1.25,1.67,2.85,-74.27,43.834,40.568,0,302
17113,0.976,0.204,0.2,0.56,1.53,3.06,-73.379,46.672,40.568,0,302
17133,0.976,0.204,0.208,-0.14,1.46,3.2,-73.513,45.56,40.568,0,300
17155,0.976,0.196,0.2,-0.7,2.02,3.41,-73.997,44.425,40.568,0,326
17175,0.976,0.196,0.2,-1.32,1.95,3.41,-73.997,44.425,40.68,0,331
17196,0.972,0.188,0.208,-0.9,1.39,3.41,-73.915,42.112,40.693,0,337
17217,0.968,0.188,0.2,-0.07,1.32,2.92,-74.174,43.232,40.654,0,338
17238,0.976,0.2,0.2,0.49,0.97,3.13,-73.844,45.003,40.667,0,326
17258,0.98,0.196,0.2,0.14,1.04,2.92,-74.209,43.834,40.815,0,315
17280,0.98,0.192,0.204,0.97,0.97,2.85,-74.052,46.739,40.815,0,308
17300,0.98,0.208,0.2,0.49,0.63,2.85,-73.538,45.003,40.815,0,309
17320,0.972,0.196,0.192,1.39,0.35,2.92,-74.242,45.594,40.815,0,305
17342,0.964,0.192,0.204,0.9,0.35,2.71,-73.801,43.267,40.815,0,332
17362,0.976,0.192,0.204,1.53,-0.83,2.37,-73.99,43.267,40.681,1,349
17384,0.98,0.196,0.2,1.39,-1.18,1.88,-74.059,44.425,40.597,1,357
17404,0.984,0.196,0.196,-0.07,1.32,3.55,-74.273,45.003,40.712,1,354
17425,0.976,0.192,0.188,0.63,0.63,3.48,-74.612,45.606,40.712,1,341
17446,0.98,0.196,0.192,-1.46,1.74,3.13,-74.209,46.173,40.646,1,326
17467,0.984,0.196,0.192,1.11,0.9,2.71,-74.273,45.003,40.646,1,477
17487,0.984,0.192,0.196,0.14,1.11,2.71,-73.602,45.003,40.646,1,207
17509,0.984,0.2,0.2,0.35,0.56,2.78,-73.969,45.003,40.646,1,292
17529,0.968,0.204,0.172,0.56,0.28,3.2,-74.594,49.868,40.646,1,336
17550,0.984,0.188,0.208,-2.71,1.95,2.78,-74.102,42.112,40.449,1,357
17571,0.98,0.184,0.184,-2.02,2.64,3.55,-75.135,45.003,40.613,1,368
17592,0.968,0.204,0.188,1.32,-1.39,3.34,-74.014,47.341,40.42,1,376
17613,0.968,0.188,0.208,4.66,-4.94,2.02,-74.144,40.959,40.51,1,375
17634,0.996,0.192,0.208,3.69,-6.12,2.3,-74.302,44.425,40.681,1,365
17654,0.992,0.196,0.204,2.02,-4.1,2.43,-74.152,45.003,40.681,1,372
17676,0.996,0.204,0.2,2.43,-2.16,2.99,-74.001,45.571,40.681,1,381
17696,0.988,0.208,0.196,1.74,-1.04,2.78,-73.872,46.705,40.681,1,384
17717,0.976,0.196,0.188,2.3,0.07,2.37,-74.455,46.197,40.681,1,374
17738,0.968,0.2,0.176,0.07,0.7,2.71,-74.618,48.656,40.217,1,350
17759,0.968,0.192,0.184,-0.77,0.42,3.27,-74.644,46.222,40.41,1,334
17780,0.976,0.2,0.184,0.56,1.18,3.06,-75.339,46.892,40.36,1,331
17801,0.98,0.196,0.188,0.56,1.39,2.64,-73.79,45.003,40.457,1,332
17821,0.988,0.204,0.176,0.07,2.3,2.23,-74.321,47.341,40.564,1,312
17843,0.988,0.192,0.196,0.07,1.74,2.16,-74.485,44.413,40.564,1,306
17863,0.992,0.2,0.172,0.35,1.6,1.88,-75.114,49.308,40.564,1,305
17884,0.984,0.208,0.188,-0.83,1.39,2.5,-74.102,47.895,40.564,1,303
17905,0.988,0.204,0.188,-0.56,1.6,2.23,-74.321,47.341,40.564,1,313
17926,0.988,0.192,0.192,-1.88,2.23,2.64,-74.638,45.003,40.498,1,330
17947,0.984,0.188,0.184,-1.32,2.09,2.57,-75.038,45.619,40.525,1,337
17968,0.976,0.196,0.184,-0.63,1.53,2.43,-74.764,46.222,40.546,1,340
17988,0.968,0.2,0.176,-0.49,0.97,2.5,-74.725,46.812,40.424,1,343
18010,0.984,0.2,0.188,0.07,0.83,2.57,-74.626,47.389,40.566,1,320
18030,0.992,0.204,0.184,0.28,1.04,2.37,-74.526,47.954,40.566,1,312
18051,0.992,0.2,0.188,-0.28,1.46,2.3,-74.539,46.775,40.566,1,308
18072,0.988,0.2,0.188,-0.77,1.46,1.95,-74.479,46.775,40.566,1,306
18093,0.988,0.204,0.196,-0.9,1.46,2.16,-74.027,46.149,40.566,1,312
18114,0.98,0.184,0.184,0.14,0.83,2.09,-75.135,45.003,40.619,1,344
18135,0.98,0.192,0.188,0.83,0.28,2.16,-74.606,46.812,40.47,1,350
18155,0.98,0.196,0.176,-0.77,1.11,2.57,-74.731,45.606,40.525,1,344
18177,0.98,0.188,0.18,-0.35,1.46,2.37,-75.153,48.149,40.416,1,346
18197,0.984,0.2,0.184,0,1.46,2.64,-74.566,47.389,40.558,1,327
18217,0.988,0.204,0.192,0.14,1.53,1.74,-74.175,46.739,40.558,1,457
18239,0.988,0.2,0.196,0.49,1.25,2.02,-74.181,45.582,40.558,1,238
18259,0.988,0.208,0.192,1.46,0.07,2.02,-74.018,47.294,40.558,1,303
18280,0.984,0.204,0.132,-0.49,0.56,2.23,-76.135,57.099,40.558,1,317
18301,0.984,0.184,0.224,0.42,2.3,1.53,-75.498,46.276,40.606,1,351
18322,0.972,0.196,0.176,-1.25,1.88,2.92,-74.442,51.076,40.603,1,364
18343,0.972,0.204,0.176,2.85,0.21,1.74,-74.635,46.197,40.472,1,371
18364,0.984,0.188,0.18,4.45,0.28,0.9,-75.19,46.249,40.617,1,380
18384,0.996,0.204,0.196,3.62,0.35,1.81,-74.149,46.149,40.478,1,369
18406,0.988,0.212,0.188,2.09,1.67,1.95,-74.003,48.437,40.472,1,365
18426,0.988,0.208,0.192,2.99,1.11,2.23,-74.018,47.294,40.472,1,373
18447,0.98,0.212,0.188,2.78,0.83,2.16,-73.879,48.437,40.472,1,371
18468,0.98,0.208,0.184,2.78,1.11,2.09,-74.184,48.507,40.472,1,356
18489,0.976,0.196,0.188,2.23,1.11,2.16,-74.573,49.218,40.451,1,342
18510,0.976,0.204,0.18,0.77,1.67,2.43,-74.052,46.739,40.676,1,337
18531,0.98,0.2,0.18,1.95,1.81,2.3,-74.96,48.081,40.828,1,334
18551,0.98,0.204,0.2,-0.83,2.71,2.23,-73.753,45.571,40.785,1,337
18573,0.984,0.208,0.176,-0.56,3.13,2.43,-74.528,49.767,41.055,1,323
18593,0.984,0.208,0.18,1.46,1.95,2.99,-74.387,49.131,41.092,1,313
18614,0.984,0.208,0.188,0.63,2.3,2.57,-74.102,47.895,41.092,1,308
18635,0.98,0.212,0.184,-0.7,2.16,2.64,-74.022,49.048,41.092,1,307
18656,0.984,0.208,0.184,-0.56,2.3,2.43,-74.526,47.954,41.092,1,308
18677,0.98,0.196,0.18,-0.35,2.3,2.78,-74.49,48.58,41.092,1,329
18698,0.972,0.204,0.192,0.28,1.18,2.71,-73.99,46.739,40.8,1,337
18718,0.976,0.204,0.184,-0.14,1.46,2.85,-74.285,47.954,41.006,1,346
18740,0.98,0.208,0.184,-0.14,1.39,3.34,-74.184,48.507,40.847,1,350
18760,0.992,0.208,0.192,1.04,1.67,3.13,-74.079,47.294,40.767,1,334
18781,0.984,0.212,0.192,-0.77,2.23,2.92,-73.798,47.838,40.79,1,323
18802,0.98,0.208,0.196,0.07,1.46,2.85,-73.747,46.705,40.79,1,326
18823,0.984,0.212,0.188,-0.63,1.18,2.85,-73.379,46.672,40.79,1,321
18843,0.984,0.208,0.192,0.42,0.56,2.78,-74.245,48.507,40.79,1,313
18865,0.984,0.204,0.18,-0.07,1.32,2.99,-74.266,49.131,40.79,1,333
18885,0.976,0.204,0.176,-0.35,1.11,2.71,-74.573,49.218,40.889,1,341
18907,0.976,0.2,0.184,1.04,0.42,2.71,-74.446,47.389,40.65,1,466
18927,0.98,0.2,0.188,1.53,1.32,2.57,-74.358,46.775,40.817,1,289
18948,0.988,0.212,0.184,-0.49,1.74,2.71,-74.144,49.048,40.821,1,336
18969,0.984,0.204,0.132,0.42,-0.49,3.13,-76.135,57.099,40.889,1,322
18990,0.988,0.204,0.22,-1.53,3.13,2.71,-73.113,42.842,40.889,1,325
19010,0.972,0.216,0.196,-2.92,2.3,3.34,-74.221,52.129,40.889,1,327
19032,0.988,0.208,0.172,0,1.53,2.64,-74.362,45.582,40.889,1,321
19052,1,0.188,0.188,1.39,2.43,1.46,-75.453,46.892,40.889,1,347
19073,0.98,0.196,0.188,-0.42,3.41,2.57,-74.516,46.197,40.77,1,367
19094,0.976,0.204,0.192,0.56,3.55,2.64,-73.99,46.739,40.904,1,385
19115,0.976,0.212,0.188,-0.14,3.27,3.06,-73.816,48.437,40.657,1,400
19136,0.976,0.2,0.184,0.21,2.37,3.2,-74.446,47.389,40.714,1,390
19156,0.976,0.204,0.188,0.7,1.81,2.99,-74.138,47.341,40.969,1,352
19177,0.98,0.208,0.196,0.28,2.37,2.78,-73.747,46.705,40.969,1,321
19198,0.976,0.208,0.2,0.07,2.16,2.78,-73.314,46.672,40.969,1,306
19219,0.976,0.2,0.2,1.18,1.6,2.71,-74.184,48.507,40.969,1,299
19239,0.964,0.2,0.2,-1.18,0.9,3.83,-73.653,45.003,40.969,1,310
19261,0.964,0.196,0.172,2.3,-1.46,3.27,-74.869,48.735,41.122,1,328
19281,0.964,0.196,0.184,3.55,-3.76,3.9,-74.423,46.812,40.75,1,337
19303,0.98,0.2,0.188,2.85,-2.23,4.1,-74.358,46.775,40.731,1,346
19323,0.972,0.2,0.172,2.3,-1.11,4.66,-74.822,49.308,40.637,1,344
19344,0.988,0.204,0.18,0.83,0.35,4.8,-74.669,48.58,40.316,1,327
19365,0.984,0.2,0.176,0.49,0.56,4.45,-74.693,49.218,40.316,1,319
19386,0.988,0.2,0.176,1.18,1.04,3.9,-73.935,50.198,40.316,1,315
19406,0.98,0.204,0.192,1.53,1.39,3.69,-74.2,47.341,40.316,1,310
19428,0.984,0.2,0.188,0.49,1.04,3.9,-74.419,46.775,40.316,1,320
19448,0.984,0.2,0.18,0.63,1.39,4.1,-74.712,48.016,40.443,1,336
19469,0.972,0.204,0.188,0,1.11,4.31,-74.076,47.341,40.679,1,353
19490,0.984,0.2,0.184,0.7,0.63,3.69,-74.566,47.389,40.62,1,354
19511,0.98,0.2,0.196,0.9,0.14,3.2,-74.059,45.582,40.642,1,347
19531,0.988,0.212,0.192,-0.07,0.9,3.41,-73.879,48.437,40.496,1,325
19553,0.984,0.204,0.184,0,0.56,3.69,-74.387,49.131,40.496,1,324
19573,0.984,0.208,0.188,1.04,-0.21,3.2,-74.102,47.895,40.496,1,419
19595,0.988,0.208,0.188,0.9,0.28,3.2,-74.163,47.895,40.496,1,225
19615,0.984,0.2,0.172,2.71,-1.18,2.85,-74.999,49.308,40.496,1,333
19636,0.976,0.196,0.168,1.25,-2.37,3.48,-75.19,49.402,40.554,1,348
19657,0.988,0.188,0.168,-0.56,0.14,2.57,-75.69,48.219,40.571,1,361
19678,0.968,0.208,0.156,-2.02,0.14,4.03,-74.971,53.134,40.393,1,367
19698,0.984,0.192,0.168,1.95,-0.97,3.34,-75.237,47.493,40.269,1,374
19720,1.004,0.192,0.168,2.16,-0.28,2.3,-75.64,51.344,40.348,1,355
19740,0.996,0.2,0.172,1.81,0.77,2.71,-74.901,46.812,40.348,1,353
19762,0.996,0.204,0.16,0.49,2.3,3.55,-75.415,51.896,40.348,1,360
19782,0.996,0.2,0.172,1.11,1.74,3.27,-75.171,49.308,40.348,1,364
19803,0.988,0.204,0.164,1.6,0.97,3.2,-75.167,51.207,40.348,1,366
19824,0.98,0.192,0.164,2.02,0.07,2.23,-75.557,49.501,40.259,1,363
19845,0.988,0.192,0.164,1.04,1.53,3.27,-75.669,49.501,40.333,1,347
19865,0.988,0.196,0.168,0.21,1.81,3.62,-75.363,49.402,40.335,1,339
19887,0.988,0.184,0.164,1.32,1.6,2.85,-75.39,50.083,40.232,1,338
19907,0.984,0.208,0.192,-0.21,2.37,2.3,-74.752,49.218,40.375,0,321
19929,0.992,0.2,0.156,0.35,3.62,3.06,-75.277,48.735,40.391,0,311
19949,0.988,0.196,0.18,1.32,1.6,3.2,-74.931,47.44,40.391,0,310
19970,0.988,0.2,0.176,-0.21,2.02,3.06,-74.915,48.656,40.391,0,308
19991,0.996,0.212,0.18,0.21,2.09,2.71,-74.404,49.671,40.391,0,311
20012,0.988,0.204,0.172,-0.63,2.64,2.71,-74.892,49.868,40.428,0,330
20032,0.984,0.196,0.176,-0.35,2.57,2.57,-75.018,48.081,40.367,0,342
20054,0.976,0.192,0.172,0.07,1.39,1.53,-74.905,49.973,40.323,0,346
20074,0.976,0.188,0.172,0.63,1.88,2.5,-75.39,50.083,40.486,0,348
20096,0.984,0.196,0.164,-0.21,2.99,2.71,-74.972,50.531,40.432,0,333
20116,0.98,0.2,0.172,2.09,2.23,2.85,-74.94,49.308,40.364,0,323
20136,0.984,0.204,0.172,1.67,2.16,2.37,-74.833,49.868,40.364,0,315
20158,0.988,0.204,0.172,2.16,1.04,1.67,-74.892,49.868,40.364,0,322
20178,1,0.208,0.18,0.07,2.92,2.99,-74.625,49.131,40.364,0,315
20199,0.976,0.192,0.172,2.09,2.23,2.37,-75.211,48.149,40.364,0,334
20220,0.976,0.196,0.168,0.63,3.06,2.23,-75.221,50.652,40.497,0,342
20241,0.984,0.2,0.168,0.77,2.78,2.37,-74.797,48.656,40.537,0,410
20262,0.98,0.192,0.184,1.11,2.57,2.3,-74.665,46.812,40.43,0,343
20283,0.98,0.208,0.184,0.7,1.53,2.3,-74.184,48.507,40.447,0,243
20303,0.984,0.204,0.132,5.43,-0.35,1.67,-76.135,57.099,40.459,0,321
20325,0.996,0.204,0.216,-0.42,2.71,3.34,-73.396,43.367,40.459,0,330
20345,0.98,0.192,0.184,-2.92,3.97,1.81,-74.823,46.222,40.459,0,331
20367,0.98,0.208,0.156,0.63,2.92,3.13,-75.147,53.134,40.459,0,331
20387,0.992,0.188,0.188,2.92,1.74,2.23,-75.002,45.003,40.459,0,357
20408,0.984,0.2,0.176,1.46,2.5,1.95,-74.407,49.767,40.674,0,372
20429,0.976,0.208,0.18,1.53,3.55,1.88,-74.797,48.656,40.838,0,390
20450,0.992,0.2,0.172,0.63,4.66,2.64,-74.863,51.076,40.482,0,404
20470,0.988,0.216,0.176,2.23,2.71,2.99,-74.257,50.83,40.748,0,402
20492,0.98,0.208,0.18,1.81,2.71,3.41,-74.327,49.131,40.836,0,367
20512,0.988,0.204,0.176,1.6,2.78,3.55,-74.752,49.218,40.836,0,334
20533,0.968,0.208,0.18,0.7,2.09,2.37,-74.142,49.131,40.836,0,309
20554,0.992,0.212,0.188,0.7,3.2,2.92,-74.064,48.437,40.836,0,298
20575,0.98,0.208,0.176,0.14,2.78,3.55,-73.449,45.56,40.836,0,316
20596,0.98,0.2,0.188,0.77,4.17,2.92,-74.635,51.609,40.903,0,332
20617,0.976,0.2,0.172,0.56,2.78,2.23,-73.778,46.149,40.88,0,342
20637,0.984,0.196,0.18,2.37,2.78,2.3,-74.872,47.44,40.954,0,343
20659,0.992,0.204,0.184,-0.14,3.62,3.27,-74.526,47.954,40.895,0,344
20679,0.984,0.208,0.184,0.97,3.27,2.85,-74.245,48.507,40.632,0,323
20700,0.992,0.208,0.188,-0.28,3.62,3.2,-74.223,47.895,40.632,0,314
20721,0.98,0.204,0.192,0.28,2.78,3.48,-74.052,46.739,40.632,0,310
20742,0.972,0.2,0.196,0.9,1.39,2.57,-74.419,46.775,40.632,0,308
20763,0.984,0.196,0.184,0.28,2.99,2.99,-74.576,46.197,40.632,0,320
20784,0.98,0.196,0.184,0.21,2.57,3.41,-73.934,45.582,40.917,0,334
20804,0.984,0.192,0.184,0.42,2.57,3.41,-74.882,46.222,40.765,0,342
20826,0.976,0.204,0.192,0.97,2.09,2.99,-73.99,46.739,41.001,0,345
20846,0.976,0.204,0.188,0.21,2.43,3.13,-74.138,47.341,41.001,0,344
20867,0.984,0.212,0.192,-1.11,2.99,3.27,-73.798,47.838,40.704,0,329
20888,0.984,0.204,0.192,-0.07,3.06,3.41,-74.114,46.739,40.704,0,327
20909,0.976,0.204,0.192,-2.23,3.97,3.62,-73.99,46.739,40.704,0,325
20930,0.98,0.212,0.196,-3.06,3.83,4.1,-73.599,46.127,40.704,0,315
20951,0.98,0.208,0.204,-3.62,3.34,4.03,-73.887,47.341,40.704,0,322
20971,0.972,0.2,0.188,-4.38,4.31,4.45,-74.138,47.341,40.761,0,340
20993,0.984,0.188,0.196,-3.13,3.69,4.45,-74.576,43.81,40.926,0,489
21013,0.98,0.192,0.2,-2.09,3.13,4.1,-74.209,43.834,40.809,0,268
21033,0.976,0.192,0.2,-2.3,2.02,4.17,-74.148,43.834,40.905,0,323
21055,0.988,0.196,0.164,-0.07,0,3.97,-75.503,50.083,40.797,0,333
21075,0.988,0.196,0.224,-3.76,2.09,3.41,-73.24,41.189,40.797,0,334
21096,0.988,0.196,0.196,-5.01,3.9,4.31,-74.573,49.218,40.797,0,334
21117,0.976,0.204,0.196,-1.11,1.04,5.15,-73.359,43.902,40.797,0,335
21138,0.988,0.188,0.208,1.32,0.07,3.41,-74.652,41.99,40.797,0,345
21159,0.976,0.188,0.2,0,0.28,3.13,-74.297,43.232,40.903,0,373
21180,0.976,0.188,0.188,0.35,0.7,2.23,-74.767,45.003,40.511,0,389
21200,0.98,0.192,0.192,0.77,0.97,2.37,-74.519,45.003,40.59,0,407
21222,0.984,0.192,0.196,0.56,1.18,3.69,-74.425,44.413,40.56,0,414
21242,0.972,0.188,0.196,2.09,0.63,3.83,-74.395,43.81,40.318,0,371
21263,0.984,0.192,0.196,0.07,1.18,3.9,-73.969,45.003,40.318,0,329
21284,0.988,0.196,0.204,-1.39,1.04,3.62,-73.449,44.447,40.318,0,302
21305,0.984,0.2,0.196,0.28,1.81,2.5,-74.79,45.606,40.318,0,292
21325,0.992,0.192,0.2,0.9,1.95,3.62,-73.904,41.038,40.318,0,290
21347,0.976,0.188,0.164,1.6,2.92,3.27,-75.667,48.904,40.24,0,320
21367,0.976,0.184,0.208,0.77,1.74,3.27,-74.123,41.5,40.313,0,329
21388,0.98,0.188,0.192,1.67,1.39,2.92,-74.672,44.4,40.258,0,333
21409,0.98,0.184,0.196,0.35,1.81,2.78,-74.665,43.194,40.156,0,339
21430,0.984,0.196,0.196,-0.21,2.23,2.71,-74.273,45.003,40.484,0,317
21451,0.984,0.196,0.204,-0.77,1.88,3.55,-74.059,44.425,40.416,0,307
21472,0.976,0.192,0.2,-0.49,1.53,3.62,-74.102,42.112,40.416,0,301
21492,0.984,0.184,0.2,-0.35,1.32,3.55,-74.114,43.267,40.416,0,299
21514,0.98,0.192,0.204,-0.21,1.18,3.69,-74.052,43.267,40.416,0,300
21534,0.968,0.188,0.196,-1.25,1.81,3.62,-74.333,43.81,40.369,0,322
21555,0.972,0.18,0.192,-0.49,1.32,3.48,-74.855,43.156,40.486,0,333
21576,0.972,0.188,0.2,0.42,0.83,2.78,-74.236,43.232,40.367,0,336
21597,0.988,0.184,0.196,-0.77,1.67,4.31,-74.784,43.194,40.396,0,342
21618,0.98,0.188,0.2,0.21,0.97,4.03,-74.261,42.666,40.212,0,324
21639,0.984,0.192,0.196,-0.77,1.25,4.73,-73.662,43.88,40.324,0,316
21659,0.984,0.192,0.204,0,0.49,3.41,-73.769,42.713,40.324,0,325
21681,0.988,0.192,0.208,0.49,0,3.2,-74.018,42.713,40.324,0,321
21701,0.984,0.196,0.204,0.07,0.14,3.41,-73.966,43.857,40.324,0,312
21722,0.972,0.184,0.204,-1.46,1.18,4.1,-74.223,42.052,40.324,0,332
21743,0.976,0.184,0.188,-1.81,1.74,5.22,-74.921,44.387,40.07,0,343
21764,0.972,0.184,0.2,-1.6,1.18,4.45,-74.385,42.617,39.999,0,513
21784,0.984,0.184,0.2,-1.25,0.97,4.03,-74.566,42.617,40.235,0,228
21806,0.992,0.196,0.212,0,0.83,3.55,-74.941,43.784,39.993,0,324
21826,0.98,0.192,0.176,-0.28,0.28,3.97,-74.814,47.44,39.887,0,326
21848,0.988,0.18,0.216,-3.27,0.77,2.71,-74.059,39.809,39.887,0,330
21868,0.984,0.18,0.18,-1.18,2.3,3.34,-75.501,45.003,39.887,0,331
21889,0.98,0.188,0.204,0.63,0.63,5.08,-74.2,42.666,39.887,0,333
21910,0.984,0.168,0.196,2.78,0,3.69,-75.306,40.604,39.887,0,362
21931,0.98,0.168,0.196,2.43,-1.18,2.5,-75.248,40.604,39.801,0,382
21951,0.984,0.18,0.192,2.92,-0.56,1.95,-75.032,43.156,39.869,0,400
21972,0.996,0.184,0.192,1.39,1.32,3.48,-75.304,43.758,39.752,0,416
21993,0.98,0.18,0.188,1.32,0.97,3.97,-74.725,43.194,39.851,0,407
22013,0.976,0.176,0.184,2.37,0.63,4.03,-74.814,42.566,39.736,0,365
22035,0.98,0.18,0.192,0.97,0.42,3.62,-74.973,43.156,39.736,0,320
22055,0.992,0.18,0.2,0.56,0.83,4.03,-74.83,41.99,39.736,0,299
22076,0.992,0.172,0.192,2.5,1.81,3.62,-75.439,41.858,39.736,0,292
22097,0.98,0.176,0.208,2.71,1.81,3.9,-74.468,40.239,39.736,0,312
22118,0.98,0.18,0.176,2.23,1.81,3.48,-75.599,45.647,39.642,0,323
22139,0.976,0.172,0.208,2.09,0.77,2.23,-75.237,42.514,39.659,0,335
22160,0.988,0.172,0.192,2.64,0.56,2.5,-74.856,41.351,39.739,0,339
22180,0.984,0.176,0.2,0.49,1.04,2.5,-74.685,42.617,39.817,0,336
22202,0.988,0.188,0.196,0.07,1.74,2.85,-74.635,43.81,39.832,0,313
22222,0.984,0.18,0.204,0.49,1.6,3.2,-74.55,41.427,39.832,0,309
22243,0.996,0.184,0.208,0.35,1.6,3.06,-74.426,41.5,39.832,1,304
22264,0.992,0.176,0.192,0.49,1.74,2.43,-75.294,42.514,39.832,1,307
22285,0.98,0.176,0.196,1.18,1.81,2.57,-74.96,41.926,39.832,1,323
22306,0.98,0.172,0.196,0.35,2.02,2.64,-75.105,41.272,39.795,1,338
22327,0.976,0.172,0.2,0.97,1.46,2.57,-75.153,41.858,39.73,1,345
22347,0.98,0.172,0.2,1.04,1.11,2.3,-75.339,43.115,39.716,1,347
22369,0.98,0.18,0.192,0.56,1.04,2.43,-74.346,42.052,39.82,1,349
22389,0.988,0.18,0.2,0.83,1.11,2.09,-74.771,41.99,39.996,1,326
22410,0.988,0.184,0.192,0.77,1.46,2.16,-74.941,43.784,39.996,1,324
22431,0.996,0.176,0.196,0.97,0.97,2.37,-75.191,41.926,39.996,1,324
22452,0.984,0.192,0.2,0.97,0.07,1.74,-74.27,43.834,39.996,1,327
22472,0.984,0.184,0.2,0.49,0.7,2.02,-74.566,42.617,39.996,1,330
22494,0.988,0.18,0.188,0.14,1.11,1.53,-75.135,45.003,39.875,1,339
22514,0.984,0.172,0.188,-0.49,1.81,1.04,-75.096,44.387,39.685,1,348
22536,0.976,0.188,0.188,-0.9,1.6,0.97,-74.365,44.413,40.005,1,490
22556,0.976,0.172,0.196,0.7,0.07,0.83,-75.047,41.272,39.629,1,285
22577,0.98,0.188,0.2,-0.97,-1.95,1.6,-74.358,43.232,39.912,1,262
22598,0.984,0.184,0.152,3.27,-2.37,1.11,-76.372,50.444,39.912,1,324
22619,0.988,0.188,0.208,-2.16,-0.77,1.74,-74.163,42.112,39.912,1,330
22639,0.988,0.176,0.192,-0.77,1.18,0.9,-75.237,42.514,39.912,1,336
22661,0.98,0.2,0.188,0.21,0.63,1.95,-74.358,46.775,39.912,1,342
22681,0.992,0.184,0.192,3.13,0.35,0.7,-75.147,43.156,39.885,1,369
22702,0.988,0.18,0.188,2.57,0,-0.07,-75.122,42.514,40.063,1,383
22723,0.976,0.188,0.196,1.88,0.97,0.77,-74.79,44.4,39.962,1,404
22744,0.984,0.196,0.188,0.9,0.97,1.11,-74.576,46.197,40.06,1,419
22764,0.984,0.2,0.188,2.57,0.63,1.11,-74.419,46.775,40.026,1,401
22786,0.988,0.192,0.188,3.13,0.56,1.32,-74.79,45.606,40.026,1,372
22806,0.984,0.196,0.184,1.46,0.83,1.18,-74.725,46.812,40.026,1,332
22828,0.988,0.2,0.192,-0.28,1.11,1.95,-74.331,46.173,40.026,1,303
22848,0.984,0.2,0.188,1.25,1.74,1.53,-75.634,48.219,40.026,1,296
22868,0.976,0.196,0.192,0.63,1.67,1.39,-74.059,44.425,40.1,1,320
22890,0.984,0.192,0.168,-0.21,3.27,0.97,-75.279,50.652,40.189,1,327
22910,0.98,0.18,0.196,0.63,2.23,1.18,-74.814,42.566,40.146,1,338
22931,0.976,0.192,0.172,0.21,2.23,1.18,-75.211,48.149,40.282,1,341
22952,0.988,0.196,0.184,-1.39,2.3,1.67,-74.784,46.812,40.363,1,321
22973,0.988,0.204,0.18,-0.21,2.43,1.95,-74.61,48.58,40.336,1,314
22994,0.988,0.2,0.192,-0.97,1.88,2.09,-74.331,46.173,40.336,1,306
23015,0.992,0.192,0.188,0.42,1.46,1.88,-74.694,46.197,40.336,1,302
23035,0.984,0.192,0.192,-0.56,1.67,2.37,-74.285,47.954,40.336,1,302
23057,0.984,0.196,0.188,0.63,1.25,2.43,-74.425,45.594,40.299,1,327
23077,0.98,0.192,0.184,1.39,0.63,2.23,-74.823,46.222,40.474,1,333
23099,0.98,0.204,0.188,-0.28,1.18,2.3,-74.2,47.341,40.297,1,340
23119,0.98,0.196,0.184,0.77,1.04,2.43,-74.665,46.812,40.441,1,342
23140,0.98,0.2,0.192,-0.14,0.9,2.3,-74.209,46.173,40.445,1,328
23161,0.984,0.204,0.192,0.14,0.77,2.09,-74.114,46.739,40.353,1,326
23182,0.992,0.196,0.196,0.97,0.28,2.02,-74.394,45.003,40.353,1,321
23202,0.988,0.2,0.2,0.35,0.9,2.09,-73.816,45.571,40.353,1,315
23224,0.992,0.2,0.184,-0.35,1.67,2.5,-74.236,46.739,40.353,1,309
23244,0.98,0.192,0.176,-0.97,1.95,2.85,-74.988,48.735,40.353,1,332
23265,0.98,0.188,0.188,0.77,1.25,2.02,-74.827,45.003,40.478,1,468
23286,0.976,0.192,0.192,1.32,2.09,1.53,-74.459,45.003,40.404,1,280
23307,0.98,0.196,0.176,0,1.6,1.6,-74.96,48.081,40.683,1,317
23327,0.992,0.2,0.132,1.74,3.27,0.83,-76.425,56.579,40.637,1,335
23349,0.992,0.2,0.232,-0.83,4.8,1.39,-72.846,40.767,40.494,1,332
23369,0.98,0.204,0.188,-2.3,4.73,1.81,-74.085,51.474,40.494,1,333
23391,0.98,0.212,0.168,1.25,3.55,1.81,-73.94,45.571,40.494,1,332
23411,1,0.2,0.2,1.46,4.52,0.9,-74.901,46.812,40.494,1,336
23432,0.984,0.192,0.196,1.18,4.66,1.32,-74.425,44.413,40.494,1,364
23453,0.98,0.204,0.2,0.97,5.08,1.18,-73.753,45.571,40.656,1,385
23474,0.976,0.204,0.192,1.25,4.17,1.11,-73.99,46.739,40.572,1,403
23494,0.976,0.2,0.2,1.81,3.2,1.32,-73.844,45.003,40.794,1,408
23516,0.968,0.196,0.188,2.99,1.88,1.46,-74.333,46.197,40.918,1,378
23536,0.984,0.2,0.196,1.04,2.37,1.32,-74.12,45.582,40.851,1,333
23557,0.98,0.208,0.204,0.7,1.6,1.88,-73.449,45.56,40.851,1,307
23578,0.984,0.208,0.192,1.67,2.85,1.6,-74.245,48.507,40.851,1,297
23599,0.984,0.22,0.216,-0.63,3.41,1.81,-72.909,44.468,40.851,1,297
23620,0.98,0.196,0.2,-0.56,3.76,1.6,-74.059,44.425,40.851,1,315
23641,0.976,0.2,0.192,1.18,3.2,1.53,-74.148,46.173,40.984,1,331
23661,0.972,0.208,0.204,-0.35,3.41,2.02,-73.32,45.56,41.223,1,343
23683,0.968,0.204,0.204,0.35,3.34,1.46,-73.409,45.003,41.022,1,344
23703,0.968,0.212,0.204,-0.63,3.27,1.6,-73.099,46.105,41.245,1,341
23724,0.976,0.208,0.216,-0.35,2.78,2.23,-73.23,46.105,41.213,1,321
23745,0.972,0.212,0.212,-0.49,2.5,2.43,-72.926,46.084,41.213,1,313
23766,0.968,0.22,0.208,0.21,2.02,2.57,-72.926,46.084,41.213,1,309
23786,0.972,0.212,0.204,0.35,1.95,2.43,-73.165,46.105,41.213,1,309
23808,0.976,0.208,0.196,-0.35,1.53,2.64,-73.684,46.705,41.213,1,320
23828,0.972,0.208,0.192,-0.7,1.74,2.71,-73.769,47.294,41.175,1,335
23849,0.972,0.212,0.204,0.07,1.46,2.71,-73.165,46.105,41.17,1,351
23870,0.972,0.212,0.208,0.56,0.97,2.23,-73.015,45.549,41.298,1,350
23890,0.972,0.208,0.204,0.35,1.32,2.02,-73.168,45.003,41.314,1,343
23912,0.976,0.212,0.204,0.49,1.39,2.23,-73.08,45.549,41.139,1,320
23932,0.976,0.212,0.2,-0.42,1.53,2.57,-73.443,46.672,41.139,1,350
23953,0.972,0.216,0.208,0.77,0.97,2.64,-72.86,46.084,41.139,1,354
23974,0.972,0.212,0.212,1.25,0.42,2.92,-72.863,45.003,41.139,1,210
23995,0.972,0.208,0.18,2.02,0.7,2.99,-74.204,49.131,41.139,1,334
24016,0.96,0.2,0.208,-0.21,-0.83,3.55,-73.276,43.88,41.154,1,345
24037,0.968,0.2,0.192,-2.16,0.9,2.43,-74.023,46.173,41.154,1,359
24057,0.952,0.212,0.176,-1.25,1.18,3.69,-73.864,50.305,41.229,1,368
24079,0.976,0.196,0.212,3.06,-0.63,2.3,-74.175,43.267,41.223,1,369
24099,0.988,0.2,0.188,0.77,0.9,2.85,-73.684,46.705,41.186,1,354
24120,0.976,0.208,0.196,0.35,0.97,3.48,-73.156,47.206,41.186,1,357
24141,0.972,0.212,0.192,0.49,0.49,3.69,-73.608,47.838,41.186,1,361
24162,0.968,0.212,0.196,1.11,-0.14,4.73,-73.397,47.249,41.186,1,364
24182,0.968,0.212,0.204,2.78,-1.67,4.45,-73.099,46.105,41.186,1,360
24204,0.976,0.204,0.204,1.6,-0.77,4.24,-73.538,45.003,41.159,1,354
24224,0.984,0.204,0.196,0.56,0.42,4.17,-73.966,46.149,40.887,1,346
24246,0.98,0.204,0.2,1.39,0.49,3.9,-74.285,47.954,41.234,1,343
24266,0.976,0.208,0.18,-0.49,0.63,3.69,-72.929,45.003,40.957,0,342
24287,0.988,0.208,0.2,-0.97,1.46,4.17,-73.842,48.968,41.048,0,316
24308,1,0.204,0.196,2.02,1.25,4.17,-74.209,46.149,41.048,0,312
24329,0.988,0.208,0.208,0.7,0.97,3.83,-73.426,45.003,41.048,0,311
24349,0.98,0.2,0.204,1.25,0.56,3.41,-73.753,44.436,41.048,0,306
24371,0.98,0.208,0.196,0.63,0.77,3.48,-73.747,46.705,41.048,0,308
24391,0.976,0.204,0.188,0.14,1.04,3.76,-74.138,47.341,41.095,0,331
24412,0.976,0.2,0.196,1.32,0.49,3.69,-73.997,45.582,40.999,0,337
24433,0.968,0.204,0.196,1.11,0.14,3.69,-73.563,45.571,40.82,0,340
24454,0.968,0.208,0.196,1.39,0.49,3.55,-74.209,46.173,40.811,0,345
24475,0.984,0.2,0.192,0.83,0.35,3.41,-73.443,46.672,40.889,0,331
24496,0.988,0.208,0.192,1.25,0.28,3.62,-74.018,47.294,40.863,0,319
24516,0.988,0.216,0.208,0.77,0.9,3.83,-73.122,46.084,40.863,0,321
24538,0.98,0.208,0.2,0.9,0.28,3.48,-73.599,46.127,40.863,0,311
24558,0.988,0.208,0.188,0.35,0.97,3.97,-74.163,47.895,40.863,0,310
24579,0.976,0.2,0.192,0.77,0.63,3.97,-74.148,46.173,40.853,0,335
24600,0.976,0.192,0.188,0.56,0.56,3.69,-74.612,44.4,40.845,0,421
24621,0.976,0.196,0.192,1.53,0,2.92,-74.395,46.197,40.783,0,301
24641,0.972,0.2,0.2,0.83,0.07,3.13,-73.997,45.582,41.006,0,285
24663,0.98,0.2,0.152,3.83,-0.63,2.43,-75.628,52.769,40.699,0,338
24683,0.98,0.2,0.22,0.77,-0.56,2.5,-73.128,42.277,40.724,0,339
24704,0.98,0.208,0.204,-0.35,0.42,2.99,-73.449,45.56,40.724,0,336
24725,0.976,0.208,0.172,1.6,-0.9,3.41,-74.547,50.416,40.724,0,333
24745,1,0.192,0.196,3.9,-0.77,2.3,-74.663,44.413,40.724,0,335
24767,0.988,0.192,0.176,2.23,0.42,2.57,-74.672,45.606,40.724,0,369
24787,0.988,0.196,0.192,1.6,1.95,2.85,-74.685,47.389,40.624,0,382
24808,0.996,0.204,0.18,1.32,2.64,3.13,-74.55,48.58,40.974,0,401
24829,0.98,0.2,0.184,1.53,1.74,2.64,-74.506,47.389,40.827,0,407
24850,0.98,0.204,0.184,1.74,1.39,2.71,-74.346,47.954,40.847,0,377
24870,0.984,0.2,0.18,1.39,1.25,2.64,-74.712,48.016,40.713,0,335
24892,0.984,0.208,0.192,1.04,1.53,2.78,-73.956,47.294,40.713,0,311
24912,0.984,0.204,0.188,1.95,2.16,2.3,-74.261,47.341,40.713,0,303
24934,0.984,0.212,0.204,-0.07,1.81,1.46,-73.359,46.105,40.713,0,299
24954,0.98,0.204,0.176,0.63,2.85,2.02,-74.55,48.58,40.713,0,322
24975,0.98,0.2,0.18,0.49,2.3,3.27,-73.99,46.739,40.842,0,335
24996,0.98,0.196,0.188,1.18,1.95,3.06,-74.114,46.739,40.927,0,340
25017,0.98,0.216,0.192,-0.9,2.64,3.41,-73.575,48.37,40.869,0,349
25037,0.976,0.212,0.196,0,2.43,2.43,-73.526,47.249,40.758,0,336
25059,0.988,0.208,0.196,-0.63,3.55,2.92,-73.872,46.705,40.848,0,322
25079,0.984,0.208,0.192,-0.14,3.34,3.2,-73.956,47.294,40.848,0,313
25100,0.98,0.204,0.188,0.7,2.71,3.62,-74.2,47.341,40.848,0,311
25121,0.98,0.208,0.188,0.7,2.71,3.48,-73.841,46.149,40.848,0,309
25142,0.976,0.2,0.188,0.9,2.02,2.78,-73.934,45.582,40.848,0,327
25163,0.98,0.204,0.196,1.95,2.23,2.3,-74.331,46.173,40.862,0,338
25184,0.984,0.204,0.188,1.6,2.92,2.99,-74.261,47.341,40.854,0,355
25204,0.972,0.204,0.192,1.25,2.02,1.95,-73.928,46.739,40.954,0,353
25226,0.98,0.204,0.192,2.37,2.57,2.09,-74.052,46.739,40.741,0,341
25246,0.988,0.208,0.188,0.83,2.99,3.34,-74.163,47.895,40.843,0,323
25267,0.98,0.204,0.188,1.32,3.13,3.2,-74.2,47.341,40.843,0,337
25288,0.984,0.208,0.192,1.18,2.99,3.97,-73.956,47.294,40.843,0,406
25309,0.984,0.208,0.204,-0.07,2.57,2.78,-72.771,46.609,40.843,0,207
25329,0.988,0.208,0.204,4.38,1.6,1.81,-75.669,49.501,40.843,0,340
25351,0.984,0.2,0.148,0,2.57,3.69,-73.298,45.003,40.79,0,354
25371,0.972,0.192,0.196,-2.23,3.9,2.16,-74.242,44.413,40.98,0,364
25393,0.964,0.2,0.172,-2.43,4.66,3.27,-74.702,49.308,41.006,0,372
25413,0.98,0.196,0.196,0.83,2.64,4.03,-74.212,45.003,40.958,0,379
25434,1,0.196,0.188,1.25,2.64,2.92,-74.811,46.197,41.017,0,360
25455,0.996,0.2,0.2,0.83,4.31,2.57,-74.152,45.003,41.017,0,361
25476,1,0.208,0.2,0.42,5.7,1.81,-74.152,45.003,41.017,0,368
25496,0.988,0.208,0.2,0.56,5.43,2.16,-73.21,45.549,41.017,0,381
25518,0.98,0.212,0.208,1.39,4.87,2.37,-73.344,45.003,41.017,0,377
25538,0.964,0.204,0.192,0.49,4.66,2.85,-73.801,46.739,40.995,0,370
25559,0.964,0.208,0.2,-0.9,3.83,2.92,-73.341,46.127,41.058,0,347
25580,0.964,0.208,0.204,-1.25,3.55,3.06,-73.189,45.56,41.261,0,337
25601,0.968,0.2,0.204,-0.9,2.99,3.27,-73.563,44.436,41.122,0,334
25621,0.972,0.212,0.224,-0.9,4.03,3.48,-72.401,43.427,41.09,0,314
25643,0.98,0.204,0.204,-0.83,3.27,3.48,-73.602,45.003,41.09,0,312
25663,0.984,0.2,0.224,-0.07,2.99,3.9,-73.379,43.335,41.09,0,310
25683,0.976,0.208,0.22,-0.9,2.5,4.1,-72.903,43.397,41.09,0,307
25705,0.984,0.212,0.216,-2.02,2.57,3.83,-72.992,43.922,41.09,0,308
25725,0.976,0.208,0.216,-2.99,2.92,4.17,-72.926,43.922,41.25,0,328
25747,0.968,0.2,0.216,-2.5,2.16,4.03,-73.091,42.801,40.903,0,334
25767,0.964,0.196,0.22,-2.3,1.32,4.52,-73.01,41.701,40.828,0,337
25788,0.956,0.196,0.204,-1.32,0.56,4.45,-73.521,43.857,40.93,0,341
25809,0.964,0.2,0.212,-0.9,0,4.94,-73.183,43.335,40.813,0,320
25830,0.976,0.2,0.216,-0.28,-0.56,5.22,-73.672,42.169,40.872,0,313
25850,0.98,0.204,0.216,-0.21,-0.83,5.15,-73.359,43.902,40.872,0,309
25872,0.992,0.2,0.216,-1.53,-1.18,4.1,-72.843,44.468,40.872,0,306
25892,0.984,0.196,0.204,-1.67,0,4.24,-73.966,43.857,40.872,0,322
25913,0.976,0.196,0.204,-2.92,0.49,5.08,-73.841,43.857,40.903,0,341
25934,0.972,0.188,0.204,-0.63,-0.49,4.03,-74.076,42.666,40.588,0,341
25955,0.984,0.188,0.196,-2.09,1.6,3.97,-74.576,43.81,40.598,0,344
25975,0.968,0.184,0.204,-0.9,1.39,3.34,-74.161,42.052,40.519,0,348
25997,0.976,0.188,0.204,-1.04,1.46,2.64,-74.138,42.666,40.453,0,487
26017,0.976,0.184,0.216,-0.49,0.97,2.43,-73.816,41.569,40.545,0,200
26039,0.98,0.192,0.22,0.28,0.14,2.71,-74.358,43.232,40.545,0,313
26059,0.972,0.188,0.168,-0.77,-0.97,3.06,-74.242,45.594,40.545,0,316
26080,0.992,0.172,0.216,-3.27,2.02,2.71,-74.451,38.533,40.545,0,324
26101,0.972,0.172,0.188,-2.09,2.99,3.13,-75.316,42.458,40.545,0,351
26122,0.992,0.192,0.22,1.18,0.7,4.38,-73.603,41.115,40.154,0,361
26142,0.996,0.168,0.216,4.24,-0.9,1.53,-74.643,37.878,40.3,0,374
26164,0.996,0.176,0.224,3.34,-0.7,0.63,-74.044,38.16,40.194,0,384
26184,0.996,0.184,0.22,2.64,0.9,0.63,-74.104,40.429,40.122,0,380
26206,0.988,0.176,0.212,3.41,1.32,1.18,-73.756,39.911,40.237,0,384
26226,0.976,0.18,0.212,4.94,1.6,2.5,-74.327,40.875,40.237,0,374
26247,0.964,0.18,0.2,5.63,1.6,3.27,-74.41,41.99,40.237,0,344
26268,0.976,0.184,0.204,5.22,2.23,4.03,-74.285,42.052,40.237,0,309
26289,0.972,0.196,0.204,5.5,2.16,4.17,-73.778,43.857,40.237,0,311
26309,0.976,0.192,0.188,7.86,2.37,3.27,-74.612,45.606,40.707,0,313
26331,0.976,0.208,0.216,9.39,2.78,2.43,-72.926,43.922,40.525,0,321
26351,0.98,0.2,0.176,9.53,2.57,1.88,-73.563,44.436,40.67,0,326
26372,0.968,0.2,0.212,9.74,2.09,1.25,-74.148,43.834,40.546,0,318
26393,0.972,0.192,0.196,9.74,1.11,1.81,-73.406,43.88,40.689,0,307
26414,0.964,0.2,0.2,8.63,-0.14,2.78,-73.653,45.003,40.689,0,300
26435,0.972,0.216,0.2,7.23,0,3.9,-73.156,47.206,40.689,0,294
26456,0.972,0.224,0.204,5.91,0.42,4.66,-72.693,47.679,40.689,0,292
26476,0.96,0.216,0.2,3.97,-0.21,4.94,-72.958,47.206,40.689,0,309
26498,0.964,0.216,0.196,2.57,-0.56,4.59,-73.172,47.783,41.034,0,316
26518,0.968,0.216,0.188,0,-0.21,5.57,-73.526,48.968,40.869,0,326
26539,0.972,0.228,0.188,-3.06,0.21,5.57,-73.407,51.219,41.024,0,329
26560,0.964,0.208,0.18,-4.52,0,5.5,-73.858,49.578,41.006,0,321
26580,0.98,0.224,0.188,-5.43,-0.63,4.8,-73.217,49.903,40.876,0,303
26601,0.98,0.224,0.2,-5.29,-1.32,2.92,-72.969,48.243,40.876,0,314
26622,0.984,0.22,0.2,-5.91,-1.04,2.43,-73.193,47.73,40.876,0,304
26643,0.984,0.196,0.204,-4.17,-1.18,2.85,-73.966,43.857,40.876,0,294
26663,0.984,0.176,0.2,-4.52,-0.42,3.48,-74.856,41.351,40.876,0,310
26685,0.984,0.172,0.196,-3.34,0.42,3.9,-75.163,41.272,40.727,0,327
26705,0.984,0.172,0.192,-2.85,0.35,3.76,-75.326,41.858,40.595,0,501
26727,0.976,0.172,0.2,-1.74,-0.97,3.69,-74.901,41.926,40.599,0,202
26747,0.98,0.18,0.216,-2.78,-0.83,3.97,-75.204,43.156,40.504,0,331
26768,0.988,0.196,0.176,-0.97,-1.18,4.59,-75.076,48.081,40.605,0,323
26789,1.012,0.184,0.196,-5.7,1.74,4.8,-75.129,43.194,40.605,0,323
26810,0.992,0.184,0.172,-5.29,3.83,4.1,-75.759,46.934,40.605,0,329
26830,0.988,0.188,0.184,-1.67,2.57,4.8,-75.096,45.619,40.605,0,333
26852,0.98,0.168,0.192,0.83,1.11,3.48,-75.414,41.189,40.605,0,358
26872,0.98,0.164,0.188,-0.56,1.53,1.74,-75.723,41.103,40.35,0,387
26894,0.984,0.168,0.18,0.56,1.53,1.39,-75.488,42.458,40.252,0,407
26914,0.988,0.18,0.188,0.49,2.5,2.5,-75.154,44.387,40.18,0,429
26935,0.996,0.18,0.188,1.39,3.34,2.92,-75.453,43.115,40.412,0,427
26956,0.98,0.184,0.2,0.97,3.48,2.23,-74.506,42.617,40.359,0,374
26977,0.988,0.184,0.2,-0.77,4.1,2.64,-74.626,42.617,40.359,0,330
26997,0.988,0.196,0.208,-0.97,3.9,2.57,-73.872,43.302,40.359,0,307
27019,0.996,0.184,0.184,2.3,4.03,2.16,-75.364,45.003,40.359,0,299
27039,0.988,0.188,0.224,2.85,4.66,1.6,-73.517,40.009,40.359,0,310
27061,0.976,0.184,0.188,1.46,4.45,1.32,-74.061,41.5,40.319,0,334
27081,0.976,0.176,0.216,3.06,2.78,0.97,-74.266,40.875,40.719,0,340
27102,0.964,0.184,0.2,3.13,1.46,1.32,-73.935,41.5,40.316,0,348
27123,0.972,0.188,0.196,1.39,2.3,1.88,-74.395,43.81,40.488,0,348
27144,0.984,0.2,0.204,0.49,2.85,1.67,-73.816,44.436,40.41,0,326
27164,0.984,0.2,0.204,0.9,1.95,1.04,-73.816,44.436,40.41,0,321
27186,0.984,0.2,0.212,1.18,1.32,0.97,-73.507,43.335,40.41,0,314
27206,0.98,0.196,0.196,1.74,1.18,1.25,-74.212,45.003,40.41,1,316
27227,0.98,0.204,0.196,2.5,0.9,1.53,-74.151,45.003,40.41,1,317
27248,0.976,0.192,0.208,1.67,1.04,1.6,-74.245,41.5,40.662,1,344
27269,0.98,0.192,0.196,2.78,1.25,1.04,-74.365,44.413,40.799,1,351
27289,0.976,0.192,0.192,2.37,1.39,1.32,-74.552,44.4,40.995,1,354
27311,0.98,0.196,0.188,0.9,1.25,1.53,-74.516,46.197,40.71,1,372
27331,0.984,0.204,0.2,0.49,0.35,2.02,-73.816,45.571,40.811,1,350
27353,0.988,0.196,0.204,1.32,-0.28,2.02,-74.027,43.857,40.854,1,329
27373,0.988,0.196,0.192,0.83,0.35,1.6,-74.485,45.594,40.854,1,323
27394,0.988,0.196,0.192,-0.07,1.11,1.67,-74.485,45.594,40.854,1,322
27415,0.988,0.192,0.2,0.42,0.83,1.25,-74.446,42.617,40.854,1,481
27436,0.968,0.188,0.2,0.97,-0.35,1.81,-73.928,43.267,40.97,1,260
27456,0.976,0.192,0.208,-0.7,-1.74,2.02,-73.81,43.302,40.954,1,320
27478,0.984,0.192,0.148,1.53,-0.42,1.46,-76.166,52.378,41.096,1,356
27498,0.992,0.18,0.216,-2.09,1.25,0.97,-74.181,39.809,40.942,1,366
27520,0.988,0.176,0.184,-1.18,2.43,0.56,-75.554,43.73,40.932,1,353
27540,0.976,0.2,0.184,1.04,1.46,0.56,-74.446,47.389,41.002,1,348
27560,1,0.196,0.196,3.41,2.09,-0.56,-74.513,45.003,41.002,1,350
27582,1,0.188,0.184,3.76,1.53,-0.7,-74.849,45.606,41.002,1,356
27602,0.988,0.204,0.2,2.09,2.71,-0.7,-74.079,47.294,41.002,1,370
27623,0.984,0.208,0.192,2.02,2.85,-1.04,-73.295,46.105,41.002,1,407
27644,0.972,0.212,0.192,2.99,2.02,-1.25,-73.608,47.838,41.181,1,413
27665,0.968,0.208,0.2,3.62,2.23,-1.18,-73.406,46.127,41.33,1,394
27685,0.964,0.216,0.208,2.78,2.3,-0.7,-72.726,46.084,41.431,1,360
27707,0.972,0.216,0.212,2.09,1.67,-0.07,-72.71,45.539,41.65,1,323
27727,0.98,0.212,0.192,3.13,1.25,-0.21,-73.735,47.838,41.515,1,305
27749,0.976,0.224,0.216,2.16,2.16,-0.35,-72.321,46.045,41.515,1,300
27769,0.98,0.224,0.188,1.18,2.02,0,-72.785,47.165,41.515,1,303
27790,0.976,0.216,0.208,2.85,0.9,0.9,-72.918,47.165,41.515,1,302
27811,0.972,0.208,0.196,1.81,0.35,0.83,-73.075,46.64,41.515,1,324
27832,0.976,0.22,0.2,1.74,1.18,0.9,-73.063,47.73,42.068,1,332
27852,0.976,0.216,0.192,1.88,1.95,0.28,-73.511,48.37,41.81,1,337
27874,0.964,0.216,0.204,1.04,1.88,0.49,-72.876,46.64,41.995,1,335
27894,0.976,0.228,0.188,0.7,2.16,1.18,-73.16,50.496,41.995,1,326
27915,0.976,0.232,0.188,1.32,2.16,1.11,-72.994,50.984,41.936,1,312
27936,0.972,0.236,0.2,1.67,1.39,1.18,-72.648,49.24,41.936,1,304
27957,0.98,0.24,0.2,-0.35,1.46,1.39,-72.361,51.23,41.936,1,304
27977,0.98,0.24,0.2,-1.18,1.11,1.67,-72.459,50.766,41.936,1,302
27999,0.976,0.224,0.2,-0.83,0.42,1.6,-72.903,48.243,41.936,1,328
28019,0.972,0.22,0.2,-0.14,-0.42,0.9,-72.997,47.73,42.074,1,330
28041,0.972,0.228,0.192,-1.04,0.28,0.56,-72.957,49.903,42.139,1,334
28061,0.964,0.224,0.188,0.7,0.14,0.42,-73.13,49.997,42.031,1,341
28082,0.976,0.22,0.184,-0.14,1.18,0.42,-73.63,50.096,42.292,1,398
28103,0.976,0.224,0.196,1.39,1.46,1.18,-73.046,48.818,42.121,1,321
28124,0.972,0.232,0.208,0.7,0.28,1.81,-72.14,48.612,42.121,1,207
28144,0.972,0.24,0.196,2.02,1.95,2.02,-74.199,57.912,42.121,1,307
28166,0.976,0.244,0.16,-0.21,-0.9,2.78,-71.346,44.514,42.121,1,314
28186,0.96,0.232,0.196,-3.76,0.83,1.81,-72.45,49.812,42.121,1,338
28207,0.96,0.244,0.172,-1.6,0.77,2.99,-72.731,54.823,42.253,1,358
28228,0.98,0.232,0.204,0.49,0.77,2.85,-72.508,48.678,42.366,1,367
28249,0.972,0.22,0.176,-1.6,1.95,2.71,-73.841,51.344,42.409,1,377
28270,0.964,0.236,0.196,-1.67,1.04,3.41,-72.353,50.294,42.255,1,386
28291,0.984,0.244,0.2,-2.02,0.28,3.69,-72.03,52.129,42.387,1,375
28311,0.98,0.256,0.2,-2.85,-0.97,4.66,-72.15,53.28,42.387,1,372
28333,0.972,0.252,0.184,-3.2,-1.46,5.01,-72.412,53.869,42.387,1,356
28353,0.992,0.244,0.184,-2.23,-1.46,4.45,-72.883,52.984,42.387,1,327
28374,0.988,0.232,0.188,-6.4,0.49,3.97,-73.189,50.984,42.387,1,315
28395,0.972,0.212,0.176,-4.31,0.56,2.78,-74.179,50.305,42.287,1,327
28416,0.964,0.208,0.212,-4.17,0.14,2.23,-72.882,44.458,42.332,1,334
28436,0.976,0.208,0.184,-4.94,0.9,2.92,-74.123,48.507,41.944,1,338
28457,0.98,0.2,0.18,-1.95,0.83,2.57,-74.771,48.016,42.14,1,339
28478,0.98,0.208,0.208,-0.21,0.07,2.3,-73.449,45.56,42.404,1,320
28499,0.984,0.2,0.204,0.63,0.07,1.6,-73.903,46.149,42.404,1,315
28520,0.976,0.204,0.196,1.6,-0.35,2.37,-73.894,47.294,42.404,1,312
28540,0.984,0.22,0.192,0.63,-0.07,2.64,-73.477,48.892,42.404,1,307
28562,0.976,0.208,0.192,2.09,0.21,3.62,-73.832,47.294,42.404,1,313
28582,0.968,0.212,0.184,1.53,-1.11,2.99,-73.834,49.048,42.43,1,337
28603,0.968,0.212,0.172,1.88,-1.53,2.71,-74.256,50.951,42.534,1,349
28624,0.976,0.228,0.184,2.09,-1.6,3.06,-73.296,51.1,42.459,1,355
28645,0.992,0.232,0.172,1.67,-1.95,2.43,-73.579,52.197,42.882,1,366
28665,1,0.232,0.18,0.7,-1.95,0.97,-73.604,50.496,42.915,1,330
28687,0.988,0.228,0.172,-1.04,-2.3,-0.21,-73.361,51.1,42.915,1,314
28707,0.972,0.22,0.176,-2.23,-2.64,-0.14,-73.841,51.344,42.915,1,319
28729,0.976,0.22,0.176,-1.11,-2.92,0.49,-73.904,51.344,42.915,1,382
28749,0.984,0.228,0.188,0.83,-2.71,0.9,-73.289,50.496,42.915,1,273
28770,0.988,0.228,0.192,0,-2.43,0.7,-73.217,49.903,43.101,1,267
28791,0.988,0.208,0.156,1.32,-1.11,-0.77,-75.262,53.134,42.941,1,336
28812,0.98,0.216,0.192,-0.14,-2.09,-0.14,-74.181,45.582,42.738,1,348
28832,0.98,0.204,0.18,-2.57,-0.97,-0.28,-73.734,51.847,42.683,1,346
28854,0.976,0.236,0.168,1.11,-1.25,1.11,-73.476,53.919,42.53,1,329
28874,0.992,0.228,0.18,4.8,-1.46,-0.07,-73.684,51.714,42.477,1,322
28895,0.988,0.232,0.168,2.37,-0.56,0.42,-73.838,54.094,42.477,1,324
28916,0.976,0.24,0.18,1.67,-0.07,1.25,-72.919,53.134,42.477,1,328
28937,0.968,0.244,0.18,2.57,-0.63,0.97,-72.613,53.588,42.477,1,335
28958,0.948,0.248,0.168,3.2,-1.39,1.88,-72.47,55.89,42.391,1,359
28979,0.948,0.248,0.164,3.9,-2.16,3.34,-72.592,56.528,42.216,1,352
28999,0.964,0.256,0.148,1.18,-0.49,4.38,-73.15,59.971,42.166,1,333
29021,0.976,0.252,0.152,0.35,-0.42,4.94,-73.063,56.528,41.981,1,327
29041,0.984,0.252,0.156,1.39,-0.9,4.1,-73.489,61.331,42.248,1,304
29062,0.984,0.252,0.184,-1.25,0.14,4.03,-72.412,53.869,42.322,1,292
29083,0.98,0.24,0.152,1.18,-0.7,3.69,-73.84,57.657,42.322,1,275
29104,0.972,0.24,0.164,0,-2.02,4.8,-73.356,55.658,42.322,1,274
29125,0.984,0.24,0.16,-2.43,-1.67,5.5,-73.668,56.314,42.322,1,265
29146,0.976,0.252,0.144,-3.83,-0.14,6.19,-73.444,60.26,42.322,1,276
29166,0.976,0.248,0.148,-3.2,0.49,5.98,-73.778,56.539,41.847,1,290
29188,0.976,0.232,0.156,-2.78,-0.56,6.12,-73.786,56.98,41.989,1,294
29208,0.988,0.24,0.14,-3.13,-0.07,6.96,-74.173,60.159,41.765,1,303
29229,1.012,0.236,0.144,-3.27,0.14,6.89,-74.726,58.614,41.471,1,284
29250,1.012,0.216,0.156,-1.6,0.28,6.26,-75.255,54.166,41.466,1,277
29271,1.004,0.212,0.152,-1.88,1.18,6.26,-75.441,54.364,41.466,1,281
29292,0.992,0.204,0.156,-1.25,1.32,5.43,-75.491,52.599,41.466,1,268
29313,0.988,0.204,0.164,0.56,0.63,5.36,-75.167,51.207,41.466,1,269
29333,0.988,0.2,0.156,0,1.25,6.12,-75.677,53.314,41.466,1,290
29355,0.992,0.2,0.152,1.04,1.11,5.29,-75.378,52.599,41.084,1,328
29375,0.988,0.204,0.16,2.3,1.25,4.38,-75.574,54.571,41.214,1,375
29395,0.988,0.208,0.148,0.28,3.2,3.97,-75.518,54.571,41.145,1,236
29417,0.964,0.208,0.14,2.3,3.34,3.55,-75.427,56.061,41.036,0,328
29437,0.96,0.232,0.16,-4.8,1.74,6.89,-73.645,55.412,41.099,0,302
29458,0.988,0.204,0.156,-4.45,2.92,7.72,-75.435,52.599,41.099,0,296
29479,0.988,0.22,0.164,-4.59,2.02,10.78,-74.484,53.301,41.099,0,305
29500,1.004,0.232,0.152,-3.76,1.53,12.24,-74.562,56.772,41.099,0,305
29521,1.024,0.236,0.108,-3.48,5.29,13.77,-75.152,63.065,41.099,0,334
29542,1.056,0.24,0.128,-2.16,10.57,13.5,-76.376,60.26,40.311,0,356
29563,1.036,0.204,0.136,0.9,10.3,9.6,-76.765,53.134,40.372,0,365
29584,1.02,0.192,0.152,-0.14,10.3,7.72,-76.505,51.636,39.974,0,376
29604,1.024,0.212,0.148,-1.95,14.12,5.57,-75.835,55.085,40.161,0,363
29626,1.008,0.212,0.176,1.53,13.15,5.36,-74.717,50.305,39.919,0,326
29646,1,0.212,0.148,-3.41,17.04,3.69,-75.509,55.085,39.919,0,275
29668,0.976,0.208,0.16,-4.87,16.7,2.99,-74.956,52.435,39.919,0,278
29688,0.968,0.196,0.176,-4.94,17.11,-0.56,-74.18,45.594,39.919,0,299
29710,0.96,0.18,0.18,-8.14,17.25,-2.37,-75.497,45.003,39.919,0,308
29730,0.912,0.148,0.22,-7.44,12.1,-0.07,-73.795,33.932,40.203,0,321
29751,0.916,0.14,0.236,-7.03,9.88,0.28,-73.329,30.68,40.415,0,319
29772,0.928,0.176,0.232,-7.72,8.9,2.64,-72.584,37.187,40.473,0,340
29793,0.964,0.176,0.24,-4.8,10.16,3.69,-72.848,36.257,40.508,0,334
29814,1.004,0.176,0.244,-4.03,8.14,2.57,-73.324,35.806,40.437,0,301
29835,1.012,0.168,0.248,-5.77,8.35,-2.23,-73.517,34.117,40.437,0,284
29855,1.004,0.152,0.256,-3.62,7.79,-5.57,-72.964,31.61,40.437,0,281
29877,0.992,0.156,0.252,-3.06,6.05,-4.66,-72.579,34.318,40.437,0,267
29897,0.96,0.18,0.248,-0.42,5.22,-4.38,-71.764,33.087,40.437,0,294
29919,0.956,0.168,0.236,0.63,4.31,-5.22,-73.147,35.448,40.957,0,302
29939,0.952,0.18,0.224,-1.25,3.41,-5.08,-73.209,38.787,40.858,0,302
29960,0.952,0.176,0.208,-4.66,2.3,-5.01,-74.034,40.239,40.995,0,309
29981,0.932,0.164,0.244,-1.88,1.18,-5.63,-72.498,33.909,41.108,0,293
30002,0.936,0.184,0.216,-4.66,2.23,-6.33,-73.141,40.429,41.129,0,351
30022,0.94,0.208,0.216,-5.01,2.71,-4.52,-71.884,41.329,41.129,0,171
30044,0.944,0.204,0.24,-3.55,2.37,-2.78,-72.282,42.328,41.129,0,167
30064,0.952,0.204,0.188,-0.63,0.9,-0.83,-74.097,49.767,41.129,0,205
30086,0.96,0.208,0.228,-3.97,3.13,1.32,-72.184,42.377,41.129,0,212
30106,0.98,0.208,0.224,-4.24,3.69,0.49,-72.682,42.882,41.167,0,224
30127,0.98,0.212,0.24,0.7,2.92,-0.42,-71.91,41.458,41.51,0,229
30148,0.984,0.196,0.224,2.57,3.55,-1.74,-73.176,41.189,41.701,0,248
30169,0.972,0.184,0.224,3.55,6.4,-0.21,-73.399,39.404,41.543,0,246
30189,0.976,0.22,0.236,4.03,7.1,1.11,-71.287,44.505,41.771,0,217
30211,0.952,0.232,0.228,4.03,7.3,1.53,-70.227,45.958,41.771,0,196
30231,0.952,0.248,0.24,3.69,5.91,1.39,-69.771,46.851,41.771,0,196
30252,0.948,0.256,0.244,5.15,4.94,0.77,-69.547,46.378,41.771,0,164
30273,0.948,0.252,0.24,4.1,5.77,-0.56,-69.848,46.401,41.771,0,137
30294,0.956,0.24,0.24,2.23,6.19,-1.88,-70.459,45.003,41.811,0,152
30315,0.964,0.216,0.244,2.99,6.33,-2.43,-71.328,41.52,42.347,0,128
30336,0.956,0.232,0.248,-0.21,5.77,-1.04,-70.449,43.094,42.538,0,131
30356,0.968,0.236,0.236,0.49,5.84,-0.63,-70.982,45.003,42.397,0,131
30377,0.96,0.24,0.26,3.06,3.9,-2.3,-69.758,41.798,42.523,0,86
30398,0.952,0.228,0.252,0.14,4.73,-4.8,-70.569,41.125,42.523,0,74
30418,0.948,0.212,0.248,0.97,3.69,-5.43,-71.235,40.528,42.523,0,61
30440,0.948,0.212,0.232,-1.81,4.31,-4.52,-71.664,42.424,42.523,0,68
30460,0.924,0.2,0.256,0.21,3.62,-3.48,-70.634,38.002,42.523,0,73
30481,0.912,0.204,0.244,0.9,2.99,-2.64,-70.78,39.901,42.502,0,136
30502,0.924,0.216,0.252,2.09,3.2,-0.97,-70.247,40.604,43.234,0,154
30523,0.936,0.228,0.248,2.99,3.06,1.88,-70.211,42.597,43.49,0,178
30543,0.94,0.24,0.236,-0.42,3.69,4.31,-70.077,44.53,43.433,0,192
30565,0.948,0.256,0.252,1.32,3.06,5.91,-68.806,45.003,43.711,0,161
30585,0.956,0.26,0.256,1.74,1.88,5.98,-69.118,46.766,43.684,0,144
30606,0.952,0.256,0.248,0.63,2.09,6.61,-69.479,45.913,43.684,0,145
30627,0.964,0.252,0.252,1.74,0.7,6.26,-69.716,45.003,43.684,0,182
30648,0.96,0.252,0.26,2.43,0.35,5.29,-69.34,44.108,43.684,0,200
30668,0.928,0.256,0.264,0,1.11,5.22,-68.388,44.122,43.684,0,78
30690,0.916,0.244,0.244,5.5,-1.6,4.1,-69.363,45.003,43.332,0,218
30710,0.936,0.24,0.232,-0.49,1.32,4.94,-70.378,45.974,43.251,0,240
30731,0.952,0.244,0.244,-3.27,2.09,5.22,-69.703,45.003,43.238,0,253
30752,0.94,0.252,0.232,-0.42,1.04,5.22,-69.534,46.851,43.354,0,232
30773,0.948,0.252,0.256,2.92,-1.46,3.41,-69.397,42.749,43.286,0,214
30793,0.96,0.248,0.236,1.67,-1.46,3.55,-70.378,46.424,43.286,0,215
30815,0.96,0.272,0.252,-2.99,-0.9,5.91,-68.886,47.189,43.286,0,227
30835,0.956,0.26,0.252,-2.3,-0.97,7.03,-69.261,45.899,43.286,0,234
30857,0.94,0.236,0.24,-2.92,-0.97,6.4,-70.304,44.522,43.286,0,276
30877,0.944,0.216,0.24,-0.35,-1.53,5.57,-71.122,41.99,42.595,0,293
30898,0.948,0.204,0.236,0.07,-1.67,4.94,-72.144,39.713,42.672,0,282
30919,0.948,0.196,0.236,0.35,-1.25,3.69,-72.013,38.201,42.502,0,275
30940,0.948,0.188,0.252,5.36,-1.32,1.39,-71.709,38.323,42.756,0,256
30960,0.948,0.22,0.252,0.07,-0.56,2.09,-70.569,41.125,42.604,0,237
30982,0.944,0.216,0.204,-6.05,2.78,2.5,-72.535,46.64,42.604,0,240
31002,0.924,0.22,0.248,-1.81,-0.97,4.31,-70.268,41.579,42.604,0,244
31023,0.944,0.22,0.26,2.5,-1.18,3.34,-70.166,40.239,42.604,0,256
31044,0.968,0.216,0.228,1.6,-0.35,3.9,-72.03,43.455,42.604,0,303
31065,0.976,0.216,0.236,0,0.56,5.7,-71.857,42.47,42.537,0,345
31085,0.972,0.208,0.232,1.88,0.42,5.08,-72.209,41.395,42.719,0,365
31107,0.98,0.212,0.24,3.13,-0.35,3.34,-70.586,42.141,42.468,0,386
31127,0.964,0.224,0.248,3.55,-1.39,3.97,-69.94,44.545,42.561,0,387
31148,0.964,0.268,0.212,-0.28,-1.46,3.83,-70.487,51.658,42.332,0,356
31169,0.968,0.24,0.236,-2.37,2.02,2.71,-70.832,45.485,42.332,0,352
31190,0.948,0.196,0.256,6.96,0.49,1.81,-71.222,37.441,42.332,0,371
31211,0.96,0.232,0.216,2.78,-1.11,3.83,-71.732,47.049,42.332,0,365
31232,0.988,0.264,0.168,-5.7,3.69,3.48,-72.431,57.533,42.332,0,395
31252,0.988,0.232,0.2,-5.5,2.57,0.35,-73.641,42.713,42.47,0,436
31273,0.936,0.148,0.228,3.06,0.49,-4.03,-71.813,25.889,42.375,0,460
31294,0.916,0.128,0.288,13.57,-2.37,-3.06,-70.559,26.567,42.525,0,628
31314,0.936,0.236,0.244,7.51,-1.18,-0.28,-70.071,44.048,42.413,0,385
31336,0.964,0.28,0.232,-4.03,5.36,0.14,-69.338,50.36,42.687,0,418
31356,0.936,0.256,0.208,9.32,5.01,4.1,-70.593,50.91,42.687,0,440
31378,0.94,0.24,0.244,2.02,3.69,5.57,-69.999,44.53,42.687,0,437
31398,0.944,0.252,0.2,-5.08,5.63,7.17,-71.186,51.566,42.687,0,428
31419,0.952,0.252,0.232,-1.74,2.43,8.77,-70.216,47.37,42.687,0,460
31440,0.936,0.228,0.248,8.07,-3.06,10.5,-70.453,44.015,42.823,0,506
31461,0.928,0.232,0.212,13.84,-14.54,9.32,-70.913,50.468,42.915,0,526
31482,1.02,0.276,0.036,17.6,-10.5,3.83,-74.742,82.575,42.556,0,560
31503,1.044,0.288,0.204,-5.91,1.67,-1.32,-71.327,54.693,42.413,0,587
31523,1.012,0.24,0.488,-10.85,-4.73,1.46,-61.752,26.19,42.601,0,549
31545,0.984,0.164,0.388,7.23,-9.25,1.25,-66.83,22.915,42.601,0,546
31565,0.984,0.2,0.288,7.72,2.23,-3.76,-70.392,34.78,42.601,0,522
31587,0.948,0.196,0.272,10.5,6.26,-3.13,-70.529,35.779,42.601,0,498
31607,0.904,0.144,0.276,28.59,1.18,1.95,-72.466,25.846,42.601,0,512
31628,0.892,0.14,0.256,34.09,-4.1,7.37,-72.928,33.693,42.816,0,553
31649,0.892,0.216,0.192,28.17,-5.77,12.8,-72.054,48.37,42.972,0,568
31670,0.924,0.24,0.152,22.75,-2.23,12.31,-72.915,57.657,43.276,0,582
31691,0.944,0.224,0.124,10.23,1.32,6.82,-74.831,61.037,43.309,0,595
31712,0.988,0.236,0.14,1.67,-0.21,9.04,-74.484,59.327,43.226,0,565
31733,0.972,0.284,0.156,0.7,-2.37,15.1,-71.569,61.225,43.226,0,575
31754,0.968,0.348,0.14,-6.4,-2.64,22.26,-68.434,70.631,43.226,0,598
31774,0.972,0.356,0.14,-11.06,-1.53,35.76,-70.089,67.484,43.226,0,632
31796,1.02,0.292,0.104,-11.34,-1.04,24.7,-74.904,69.543,43.226,0,634
31816,1.052,0.224,0.144,-9.04,-1.6,9.88,-75.801,57.269,42.886,0,634
31838,1.016,0.156,0.204,-3.55,-3.76,1.88,-75.82,37.408,41.648,0,635
31858,0.992,0.148,0.212,0.35,-2.23,-1.53,-75.397,34.922,41.356,0,639
31880,0.972,0.18,0.192,-1.11,1.53,-0.7,-74.855,43.156,41.245,0,639
31900,0.964,0.188,0.216,1.95,2.92,0.77,-73.461,41.038,41.415,0,650
31921,0.928,0.18,0.22,1.46,3.83,1.11,-72.371,38.787,41.399,0,649
31942,0.908,0.188,0.212,-2.09,2.71,2.02,-72.684,45.571,41.399,0,650
31963,0.92,0.224,0.208,-6.47,4.45,5.43,-71.172,52.129,41.399,0,649
31983,1.004,0.292,0.2,-9.6,5.84,6.26,-70.587,55.596,41.399,0,638
32005,1.04,0.268,0.156,-5.57,5.5,3.76,-73.402,59.801,41.346,0,638
32025,1.028,0.24,0.204,-12.52,5.36,3.34,-72.97,49.639,41.218,0,636
32047,1.004,0.204,0.212,-15.1,5.01,-3.41,-73.673,43.902,41.277,0,636
32067,0.952,0.188,0.188,-14.61,3.41,-3.34,-74.402,45.003,41.122,0,638
32089,0.916,0.192,0.228,-12.1,2.5,5.43,-71.98,40.104,41.309,0,648
32109,0.872,0.164,0.224,-3.34,-2.5,7.3,-72.566,32.537,41.325,0,641
32130,0.908,0.16,0.244,-0.77,-5.22,5.29,-73.161,31.1,41.325,0,562
32151,1.056,0.128,0.24,-0.42,-4.73,2.78,-75.562,28.075,41.325,0,544
32172,1.032,0.12,0.236,3.48,-1.74,1.88,-75.617,26.954,41.325,0,508
32192,0.98,0.152,0.212,4.24,0.56,1.04,-75.1,35.642,41.303,0,505
32214,0.952,0.164,0.208,4.17,1.67,0.9,-74.457,38.257,40.608,0,452
32234,0.932,0.152,0.2,3.69,-0.14,1.11,-74.921,37.238,40.935,0,406
32256,0.96,0.152,0.192,3.76,-0.63,2.78,-75.695,38.37,40.822,0,371
32276,0.972,0.184,0.216,1.81,-1.25,3.9,-73.204,43.367,40.918,0,331
32296,1.004,0.208,0.184,3.48,1.39,2.02,-74.67,50.83,40.939,0,301
32318,1.02,0.216,0.192,1.6,2.5,-0.49,-73.787,47.206,40.939,0,277
32338,0.992,0.216,0.204,0.77,3.34,-2.02,-73.332,46.64,40.939,0,262
32359,0.952,0.208,0.204,2.37,0.9,-3.55,-72.99,45.56,40.939,0,247
32380,0.976,0.212,0.192,1.81,2.78,-2.71,-73.672,47.838,40.939,0,256
32401,0.976,0.224,0.184,3.2,3.41,-2.37,-73.463,50.603,41.148,0,252
32422,0.972,0.216,0.192,3.2,3.97,-2.71,-73.447,48.37,41.346,0,248
32443,0.972,0.216,0.196,0.56,5.57,-2.02,-73.23,46.105,41.506,0,243
32463,0.964,0.204,0.208,2.16,5.08,-1.88,-73.538,45.003,41.617,0,222
32485,0.964,0.212,0.212,1.46,5.43,-1.46,-72.643,45.539,41.758,0,196
32505,0.972,0.208,0.216,1.18,4.73,-0.7,-72.86,43.922,41.758,0,192
32526,0.976,0.22,0.224,1.6,3.83,-0.35,-72.173,44.487,41.758,0,183
32547,0.968,0.216,0.228,3.76,2.37,0.42,-72.03,43.455,41.758,0,166
32568,0.964,0.212,0.228,3.2,2.71,0.35,-72.107,42.921,41.758,0,185
32588,0.964,0.216,0.224,3.76,2.71,0.35,-72.115,43.962,42.133,0,204
32610,0.976,0.216,0.224,3.83,3.27,0.56,-71.803,44.496,42.036,0,340
32630,0.964,0.228,0.232,3.13,1.53,-0.28,-71.06,45.991,42.119,0,97
32652,0.952,0.228,0.228,4.17,-0.42,-0.97,-71.271,47.493,42.278,0,208
32672,0.952,0.24,0.18,2.85,-1.95,-0.97,-71.539,52.129,42.332,0,180
32693,0.972,0.24,0.216,-1.67,1.53,-1.46,-71.629,48.016,42.332,1,181
32714,0.948,0.248,0.192,-5.43,2.43,-0.42,-71.699,52.257,42.332,1,186
32735,0.976,0.252,0.2,2.85,0.49,0.77,-71.761,51.566,42.332,1,190
32755,0.996,0.24,0.196,5.08,1.25,-0.7,-72.724,50.766,42.332,1,218
32777,0.976,0.24,0.192,0.83,2.5,0.49,-72.526,51.344,42.411,1,247
32797,0.976,0.248,0.2,-1.81,4.24,1.81,-72.32,52.839,42.486,1,265
32818,0.972,0.252,0.184,-1.95,1.67,3.34,-71.199,50.375,42.689,1,282
32839,0.968,0.248,0.208,0.21,0.49,6.47,-71.021,48.949,42.723,1,272
32860,1.012,0.248,0.208,-1.18,2.02,4.17,-72.269,50.017,42.586,1,223
32881,0.996,0.24,0.224,-2.85,3.41,4.03,-71.763,46.978,42.586,1,188
32902,0.968,0.236,0.232,-0.42,2.3,5.08,-71.131,45.493,42.586,1,173
32922,0.972,0.232,0.236,-0.14,1.95,4.59,-71.203,44.514,42.586,1,175
32944,0.964,0.228,0.224,-0.7,2.99,3.76,-71.662,45.51,42.586,1,194
32964,0.952,0.22,0.228,1.25,1.81,3.9,-71.675,43.455,42.63,1,222
32985,0.952,0.22,0.224,0.7,1.25,3.83,-72.131,45.529,42.526,1,236
33006,0.96,0.22,0.228,0.07,1.74,3.27,-71.429,42.994,42.416,1,245
33027,0.964,0.228,0.228,-0.28,1.6,3.06,-71.511,45.003,42.301,1,250
33047,0.964,0.236,0.224,-1.74,2.09,3.2,-71.354,46.498,42.36,1,225
33069,0.968,0.224,0.224,-1.04,1.25,3.34,-71.884,45.003,42.36,1,221
33089,0.968,0.232,0.224,-0.35,0.49,3.41,-71.58,46.008,42.36,1,219
33111,0.972,0.24,0.224,-0.35,-0.49,4.03,-71.343,46.978,42.36,1,219
33131,0.98,0.232,0.212,-0.49,-2.02,4.31,-72.225,47.583,42.36,1,234
33152,0.984,0.224,0.208,-1.81,-2.57,4.73,-72.176,47.086,42.562,1,260
33173,0.964,0.228,0.208,-1.46,-2.85,4.31,-72.236,48.678,42.32,1,279
33193,0.96,0.212,0.204,-1.88,-1.18,4.17,-73.033,46.105,42.14,1,288
33214,0.956,0.204,0.212,-0.7,-1.46,4.38,-72.9,43.902,42.106,1,284
33235,0.976,0.212,0.216,-0.83,-1.11,3.13,-72.777,44.468,42.105,1,263
33256,0.968,0.216,0.212,-1.46,0,3.55,-72.643,45.539,42.105,1,260
33276,0.968,0.212,0.204,-1.32,0.35,2.43,-73.099,46.105,42.105,1,392
33298,0.96,0.216,0.212,0.21,-0.42,3.55,-72.507,45.539,42.105,1,178
33318,0.976,0.216,0.212,1.32,-1.25,3.69,-72.876,46.64,42.105,1,262
33340,0.96,0.22,0.16,-0.63,-0.7,3.2,-73.392,54.094,42.215,1,293
33360,0.976,0.212,0.224,-1.11,0.07,2.37,-73.443,43.335,41.974,1,315
33381,0.956,0.224,0.2,-3.13,0.77,2.78,-72.567,48.243,41.969,1,327
33402,0.972,0.232,0.2,0.07,0.49,3.13,-72.514,49.24,41.879,1,334
33423,0.988,0.212,0.2,3.41,1.04,0.9,-73.57,46.672,41.703,1,318
33443,0.98,0.216,0.208,2.3,1.25,1.25,-72.992,46.084,41.698,1,315
33465,0.988,0.228,0.208,1.46,1.74,1.32,-72.658,47.63,41.698,1,325
33485,0.972,0.232,0.204,0.56,0.56,1.67,-72.373,48.678,41.698,1,334
33506,0.972,0.232,0.2,1.81,-0.63,1.32,-72.78,48.818,41.698,1,336
33527,0.96,0.224,0.192,2.16,-0.77,1.04,-73.296,49.488,41.779,1,339
33548,0.972,0.216,0.196,1.18,-0.35,0.77,-73.142,48.305,41.981,1,326
33569,0.984,0.228,0.192,-0.07,0.9,1.25,-73.153,49.903,42.122,1,316
33590,0.972,0.228,0.196,0,0.49,1.39,-72.817,49.32,42.173,1,320
33610,0.972,0.236,0.212,-0.42,0.7,0.9,-71.93,48.07,42.005,1,301
33632,0.968,0.232,0.192,1.18,-0.14,1.81,-72.724,50.393,42.031,1,299
33652,0.984,0.228,0.208,1.11,-0.7,1.53,-72.592,47.63,42.031,1,293
33673,0.972,0.232,0.2,0.35,-0.7,2.09,-72.883,49.32,42.031,1,292
33694,0.984,0.224,0.196,0.49,-0.21,2.5,-72.118,49.089,42.031,1,290
33715,0.976,0.232,0.192,-0.63,0.83,2.02,-72.791,50.393,42.031,1,317
33735,0.972,0.22,0.2,0.77,0.42,1.74,-72.997,47.73,42.213,1,328
33757,0.964,0.228,0.192,1.04,-0.35,1.95,-72.823,49.903,42.264,1,332
33777,0.96,0.236,0.196,0.83,0.14,1.81,-72.284,50.294,42.143,1,336
33798,0.968,0.228,0.192,2.37,-0.7,1.39,-72.89,49.903,42.117,1,321
33819,0.984,0.236,0.192,1.04,0.97,0.9,-72.825,50.873,42.192,1,307
33840,0.98,0.24,0.192,-0.28,1.39,1.32,-72.351,49.724,42.192,1,313
33861,0.972,0.236,0.204,0.97,0.83,0.9,-72.623,50.294,42.192,1,305
33882,0.98,0.232,0.204,1.53,0.49,0.9,-72.575,48.678,42.192,1,295
33902,0.968,0.224,0.196,1.39,-0.14,1.32,-72.914,48.818,42.192,1,327
33924,0.972,0.228,0.2,2.09,-1.11,2.02,-72.676,48.747,42.259,1,349
33944,0.968,0.232,0.192,3.34,-1.6,2.5,-72.724,50.393,42.155,1,428
33965,0.972,0.248,0.192,3.2,-1.67,2.5,-72.122,52.257,42.604,1,270
33986,0.968,0.248,0.184,4.45,-1.53,2.64,-72.312,53.431,42.241,1,356
34007,0.98,0.248,0.144,1.74,-3.62,3.48,-73.694,59.863,42.509,1,326
34028,0.984,0.224,0.196,1.53,-2.02,2.23,-72.858,50.393,42.509,1,324
34049,0.96,0.244,0.184,-1.81,-2.5,3.06,-72.817,56.948,42.509,1,324
34069,0.98,0.252,0.176,3.62,-3.76,2.3,-73.054,50.393,42.509,1,324
34091,0.98,0.22,0.168,3.06,-2.16,1.67,-74.233,52.637,42.509,1,353
34111,0.984,0.232,0.188,1.11,-1.39,2.57,-73.124,50.984,42.492,1,370
34131,0.988,0.24,0.176,2.64,-0.28,2.78,-73.241,53.75,42.343,1,385
34153,0.98,0.244,0.188,0.07,-0.35,3.48,-72.557,52.39,42.304,1,393
34173,0.964,0.24,0.18,1.25,-1.18,2.85,-72.719,53.134,42.385,1,377
34194,0.972,0.236,0.176,1.32,-1.25,2.5,-73.05,53.134,42.288,1,335
34215,0.984,0.24,0.172,-0.07,-0.21,2.71,-73.241,53.75,42.288,1,312
34236,0.988,0.236,0.176,-0.63,-1.18,3.06,-72.921,52.528,42.288,1,303
34257,0.98,0.248,0.176,-0.63,-0.7,2.78,-72.766,54.642,42.288,1,295
34278,0.976,0.228,0.176,-0.77,0.56,2.92,-73.564,52.338,42.288,1,317
34298,0.96,0.248,0.172,-1.53,-2.23,3.27,-72.553,55.261,42.336,1,330
34320,0.98,0.224,0.184,0.35,-1.46,2.02,-73.527,50.603,42.183,1,341
34340,0.972,0.24,0.172,-1.74,-0.9,2.57,-73.108,54.376,42.172,1,346
34361,0.984,0.232,0.176,-0.77,0.07,2.5,-73.553,55.012,42.394,1,341
34382,0.988,0.236,0.172,0.77,-0.49,2.3,-73.348,52.671,41.997,1,318
34403,0.984,0.248,0.172,0.49,0,2.3,-73.31,57.176,41.997,1,308
34424,0.976,0.24,0.156,1.81,-0.49,2.99,-73.66,56.98,41.997,1,301
34445,0.976,0.236,0.156,1.74,-0.7,3.06,-73.841,56.539,41.997,1,299
34465,0.972,0.236,0.156,1.04,-0.07,2.92,-73.778,56.539,41.997,1,313
34487,0.976,0.236,0.16,1.04,0.42,2.5,-73.72,55.868,42.124,1,343
34507,0.976,0.228,0.168,0.49,0.63,1.95,-73.824,53.62,42.209,1,350
34528,0.964,0.232,0.172,0.21,0.56,1.74,-73.328,53.451,42.17,1,350
34549,0.968,0.224,0.16,1.32,-0.42,2.16,-73.457,54.094,42.2,1,353
34570,0.972,0.224,0.156,1.39,-1.04,2.43,-74.443,55.844,42.234,1,327
34590,0.96,0.236,0.144,1.53,-0.7,2.64,-73.467,56.98,42.234,1,395
34612,0.984,0.232,0.156,3.2,0.9,2.23,-74.145,56.087,42.234,1,252
34632,0.976,0.244,0.16,2.5,1.46,1.88,-73.361,56.75,42.234,1,292
34654,0.972,0.236,0.12,4.52,2.23,1.88,-74.769,63.052,42.234,1,325
34674,0.976,0.228,0.196,1.11,2.3,2.23,-72.883,49.32,42.246,1,355
34695,0.968,0.228,0.156,-0.56,1.46,3.27,-74.077,55.624,42.17,1,366
34716,0.972,0.252,0.152,1.88,1.39,3.06,-73.425,56.75,42.114,1,374
34737,0.98,0.232,0.156,3.27,2.09,1.18,-74.424,59.327,42.371,1,377
34757,0.996,0.244,0.16,-0.77,4.59,2.16,-72.735,56.108,42.173,1,356
34779,0.988,0.256,0.164,-2.16,4.52,1.95,-72.901,57.36,42.173,0,352
34799,0.98,0.256,0.164,-0.07,3.06,1.6,-72.77,57.36,42.173,0,350
34821,0.976,0.248,0.168,0.49,2.43,2.37,-72.943,55.89,42.173,0,347
34841,0.976,0.244,0.172,0.42,2.5,1.95,-72.998,54.823,42.173,0,333
34862,0.972,0.236,0.176,0.21,2.57,2.92,-73.155,53.29,42.269,0,342
34883,0.968,0.24,0.168,0.56,2.57,2.71,-73.173,54.376,42.375,0,340
34904,0.972,0.24,0.156,0.28,2.99,2.71,-72.848,53.75,42.297,0,344
34924,0.956,0.236,0.192,-0.28,2.64,2.71,-73.279,54.558,42.468,0,347
34946,0.972,0.256,0.168,0.42,0.49,3.34,-72.52,56.729,42.49,0,322
34966,0.984,0.244,0.18,1.25,1.11,2.92,-72.879,53.588,42.511,0,315
34988,0.976,0.244,0.168,0.77,2.99,2.64,-73.121,55.456,42.511,0,310
35008,0.98,0.24,0.168,1.39,4.87,2.37,-73.362,55.012,42.511,0,305
35028,0.972,0.244,0.172,1.81,5.36,2.37,-72.932,54.823,42.511,0,308
35050,0.976,0.244,0.164,1.74,4.24,2.5,-73.242,56.098,42.675,0,330
35070,0.98,0.248,0.16,-0.07,4.45,2.99,-73.72,55.868,42.354,0,343
35091,0.968,0.236,0.16,2.16,2.99,3.06,-73.34,55.208,42.377,0,344
35112,0.972,0.244,0.18,1.39,3.41,3.48,-73.025,52.671,42.542,0,352
35133,0.984,0.248,0.172,2.5,2.78,3.41,-72.954,55.261,42.792,0,329
35154,0.992,0.248,0.18,0.35,2.85,3.55,-72.839,54.032,42.718,0,324
35175,0.984,0.244,0.168,0.77,2.23,3.55,-73.25,55.456,42.718,0,318
35195,0.976,0.248,0.176,1.11,2.3,3.41,-72.699,54.642,42.718,0,307
35217,0.98,0.248,0.172,0.63,2.43,3.34,-72.888,55.261,42.718,0,308
35237,0.98,0.236,0.176,0.56,2.09,4.1,-73.824,53.62,42.718,0,334
35258,0.976,0.224,0.172,0.63,0.9,3.69,-73.023,53.29,42.461,0,442
35279,0.968,0.232,0.176,2.16,0.7,4.03,-73.348,53.919,42.539,0,258
35300,0.972,0.236,0.18,2.09,-0.14,4.24,-73.025,52.671,42.549,0,345
35321,0.98,0.244,0.136,2.78,0.97,4.17,-74.096,60.87,42.653,0,346
35342,0.98,0.232,0.196,0,1.11,4.59,-72.787,49.812,42.599,0,335
35362,0.968,0.244,0.172,-3.27,2.5,4.31,-72.866,54.823,42.599,0,334
35384,0.976,0.256,0.16,1.25,0.77,4.66,-72.818,57.999,42.599,0,331
35404,0.984,0.244,0.18,3.27,0.35,3.13,-73.134,54.201,42.599,0,339
35425,0.984,0.244,0.168,0.35,2.16,3.9,-72.752,52.984,42.599,0,367
35446,0.996,0.24,0.184,0.77,3.06,4.38,-73.134,54.201,42.571,0,381
35467,0.984,0.244,0.18,0.07,3.27,4.45,-72.879,53.588,42.341,0,395
35487,0.968,0.228,0.172,1.67,2.3,4.03,-73.567,52.974,42.359,0,391
35509,0.964,0.24,0.176,1.39,1.18,3.83,-72.848,53.75,42.419,0,359
35529,0.972,0.244,0.18,2.3,0.28,4.17,-72.68,53.588,42.384,0,320
35551,0.98,0.236,0.168,1.18,1.46,3.27,-73.538,54.558,42.384,0,304
35571,0.972,0.244,0.188,0.49,1.32,3.27,-72.422,52.39,42.384,0,299
35592,0.976,0.236,0.172,-0.49,1.95,3.27,-73.047,53.75,42.384,0,299
35613,0.968,0.232,0.176,0.97,1.25,3.48,-72.588,52.528,42.384,0,322
35634,0.98,0.228,0.184,0.7,1.53,3.41,-73.296,51.1,42.29,0,332
35654,0.984,0.232,0.176,0.49,1.46,3.48,-73.52,52.819,42.131,0,342
35676,0.984,0.232,0.168,0.35,2.3,3.48,-73.775,54.094,42.2,0,343
35696,0.984,0.24,0.176,0.14,2.5,3.97,-73.177,53.75,42.122,0,337
35717,0.98,0.236,0.184,0.21,2.5,3.62,-73.025,52.062,42.172,0,313
35738,0.976,0.236,0.176,0.07,2.57,3.76,-73.22,53.29,42.172,0,306
35759,0.972,0.24,0.18,0.21,2.64,3.2,-73.025,52.062,42.172,0,305
35780,0.98,0.236,0.176,0.9,3.41,2.85,-73.05,53.134,42.172,0,304
35801,0.984,0.224,0.172,1.04,5.08,1.88,-73.671,51.847,42.172,0,321
35821,0.976,0.232,0.16,0.35,7.86,1.6,-73.899,55.412,42.218,0,337
35843,0.976,0.236,0.168,0.14,8.07,1.74,-73.474,54.558,42.246,0,348
35863,0.976,0.236,0.172,-2.92,8.21,2.57,-73.348,53.919,42.521,0,355
35884,0.972,0.232,0.18,-1.04,5.01,3.9,-73.196,52.197,42.345,0,358
35905,0.98,0.24,0.204,-0.9,4.03,3.27,-72.187,49.639,42.589,0,322
35926,0.976,0.24,0.204,0,3.55,3.13,-72.119,49.639,42.589,0,311
35946,0.976,0.24,0.196,-0.77,4.03,2.92,-72.581,49.24,42.589,0,312
35968,0.98,0.236,0.196,-0.42,3.9,3.06,-72.324,50.198,42.589,0,432
35988,0.98,0.228,0.196,0.63,3.62,3.27,-72.373,48.678,42.589,0,215
36008,0.964,0.236,0.204,0.83,2.43,3.55,-72.074,49.163,42.635,0,329
36030,0.964,0.236,0.152,1.53,2.5,3.55,-73.77,57.22,42.373,0,358
36050,0.976,0.228,0.22,-1.88,2.78,3.55,-72.021,46.026,42.703,0,366
36072,0.964,0.228,0.196,-3.9,4.17,3.55,-72.683,49.32,42.403,0,371
36092,0.968,0.24,0.188,1.11,1.53,4.31,-72.524,51.931,42.287,0,351
36113,0.98,0.232,0.196,3.9,0.77,3.13,-73.456,52.819,42.287,0,350
36134,0.972,0.232,0.184,-0.35,0.83,4.87,-71.791,49.163,42.287,0,354
36155,0.956,0.228,0.204,0.35,0.42,4.87,-72.508,48.678,42.287,0,361
36175,0.988,0.232,0.196,0.35,-0.42,4.45,-72.918,49.812,42.287,0,375
36197,0.972,0.232,0.196,-0.07,-1.32,4.66,-72.653,49.812,42.433,0,395
36217,0.96,0.22,0.192,0.56,-1.32,4.59,-73.087,48.892,42.236,0,382
36239,0.972,0.212,0.196,0.83,-2.23,4.45,-73.462,47.249,42.409,0,357
36259,0.98,0.228,0.184,0.07,-1.32,4.17,-73.361,51.1,42.1,0,343
36280,0.992,0.236,0.192,-0.49,-1.25,4.59,-72.724,47.63,41.878,0,314
36301,0.984,0.228,0.192,0.49,0.14,4.24,-73.025,52.062,41.878,0,308
36322,0.984,0.224,0.188,0.77,0.21,4.1,-72.715,49.24,41.878,0,304
36342,0.984,0.228,0.196,0,0.63,3.55,-73.015,49.32,41.878,0,303
36364,0.976,0.232,0.2,-0.9,-1.39,2.43,-72.581,49.24,41.878,0,306
36384,0.976,0.236,0.192,1.46,-4.66,0.63,-72.692,50.873,41.804,0,332
36405,0.972,0.244,0.184,1.74,-5.98,0.9,-72.552,52.984,41.926,0,335
36426,0.98,0.236,0.188,4.17,-7.17,1.25,-72.893,51.463,41.841,0,337
36447,0.98,0.224,0.172,4.87,-7.58,3.34,-73.929,52.485,41.917,0,338
36467,0.988,0.232,0.16,3.06,-4.52,5.22,-74.322,54.945,41.987,0,312
36489,0.992,0.224,0.156,0.49,-1.18,5.77,-74.796,54.664,41.983,0,305
36509,0.988,0.232,0.156,-1.74,1.04,4.24,-73.949,53.62,41.983,0,305
36531,0.98,0.228,0.164,-0.56,0.7,3.2,-74.014,54.277,41.983,0,311
36551,0.98,0.228,0.164,0.07,0.83,3.83,-74.014,54.277,41.983,0,312
36572,0.98,0.216,0.152,-0.77,0.9,5.01,-74.922,54.87,41.983,0,356
36593,0.98,0.212,0.156,0.28,1.04,6.26,-74.972,53.656,41.607,0,355
36614,0.98,0.212,0.168,-0.21,1.95,6.12,-74.575,51.609,41.733,0,348
36634,0.984,0.22,0.168,-1.67,2.5,5.36,-74.465,52.129,41.659,0,356
36656,0.988,0.22,0.172,-0.14,1.6,4.52,-73.788,51.219,41.682,0,397
36676,0.992,0.216,0.176,1.95,0.56,4.03,-74.602,53.301,41.519,0,323
36698,0.984,0.228,0.188,0.14,0.83,4.24,-73.289,50.496,41.519,0,217
36718,0.972,0.22,0.144,2.64,1.04,3.13,-74.869,56.798,41.519,0,317
36739,0.992,0.232,0.172,-1.53,2.64,4.87,-73.773,53.451,41.519,0,326
36760,0.988,0.208,0.18,-3.27,3.83,4.24,-74.448,49.131,41.519,0,355
36781,0.956,0.216,0.152,-2.92,3.69,5.43,-74.561,54.87,41.288,0,370
36801,0.976,0.216,0.172,1.53,1.74,5.22,-74.881,51.749,41.272,0,380
36823,0.988,0.208,0.164,-0.28,2.71,4.8,-75.073,52.435,41.403,0,392
36843,0.984,0.216,0.18,-1.88,3.76,5.98,-73.753,48.437,41.482,0,385
36865,1.004,0.22,0.18,-1.74,4.38,4.38,-74.198,50.714,41.377,0,379
36885,1.004,0.22,0.176,-1.88,3.97,4.24,-74.331,51.344,41.377,0,375
36905,0.984,0.22,0.184,-0.77,2.57,4.45,-73.756,50.096,41.377,0,358
36927,0.984,0.208,0.18,0.7,1.95,3.83,-74.387,49.131,41.377,0,325
36947,0.988,0.208,0.184,0.42,2.09,3.55,-74.306,48.507,41.377,0,327
36968,0.984,0.204,0.164,0.35,3.41,3.34,-75.11,51.207,41.04,0,327
36989,0.98,0.208,0.188,0.35,3.2,3.41,-74.55,48.58,41.03,0,331
37010,0.98,0.204,0.16,0.63,4.31,3.41,-74.795,50.531,41.224,0,341
37031,0.964,0.2,0.188,1.04,2.78,3.34,-74.184,48.507,41.208,0,330
37052,0.988,0.212,0.184,1.81,2.09,2.99,-74.144,49.048,41.193,0,315
37072,0.988,0.22,0.184,-0.63,2.92,2.78,-73.818,50.096,41.193,0,310
37094,0.984,0.216,0.184,-0.14,2.78,2.92,-73.92,49.578,41.193,0,301
37114,0.984,0.216,0.18,0.07,1.81,3.55,-74.059,50.198,41.193,0,300
37135,0.98,0.208,0.18,-0.49,1.53,3.2,-74.327,49.131,41.193,0,320
37156,0.984,0.204,0.176,-0.63,1.25,2.92,-74.833,49.868,41.25,0,332
37177,0.98,0.204,0.176,0.56,0.56,3.27,-74.446,47.389,41.135,0,339
37197,0.98,0.2,0.18,0.21,0.7,3.2,-74.49,48.58,40.95,0,340
37219,0.988,0.208,0.184,0.42,0.56,3.41,-74.306,48.507,41.051,0,338
37239,0.988,0.212,0.184,0.49,0.56,3.34,-74.144,49.048,41.077,0,316
37261,0.984,0.212,0.18,-0.9,0.42,2.78,-74.224,49.671,41.077,0,320
37281,0.988,0.208,0.184,1.32,-0.97,1.95,-74.306,48.507,41.077,0,306
37302,0.988,0.208,0.18,-0.07,0.77,3.62,-74.448,49.131,41.077,0,302
37323,0.984,0.208,0.168,-0.7,1.04,3.62,-74.804,51.076,41.077,0,318
37344,0.972,0.2,0.176,-0.07,0.9,3.48,-74.618,48.656,41.103,0,426
37364,0.968,0.208,0.18,-0.21,1.18,3.41,-74.387,49.131,41.087,0,322
37386,0.992,0.2,0.184,-0.83,0.21,2.64,-74.306,48.507,40.972,0,248
37406,0.98,0.2,0.144,1.67,1.53,2.37,-75.89,54.25,40.941,0,347
37427,0.988,0.216,0.196,-2.57,1.74,4.31,-73.558,47.783,40.803,0,333
37448,0.996,0.2,0.192,-2.99,2.71,3.06,-74.451,46.173,40.803,0,333
37469,0.976,0.216,0.164,-2.43,3.13,3.83,-74.476,52.796,40.803,0,336
37490,0.988,0.216,0.18,2.57,0.49,3.83,-74.12,50.198,40.803,0,340
37511,0.996,0.2,0.176,2.16,0.35,2.57,-74.725,46.812,40.803,0,363
37531,0.98,0.204,0.188,0.83,1.18,3.62,-73.69,48.437,40.997,0,394
37553,0.988,0.204,0.176,0,1.46,1.39,-74.619,50.951,40.83,0,412
37573,0.992,0.204,0.168,1.95,0.77,2.37,-75.088,50.531,40.857,0,416
37594,0.976,0.2,0.168,0.56,1.39,3.76,-75.023,49.973,40.785,0,395
37615,0.98,0.208,0.176,1.32,1.6,3.34,-74.468,49.767,40.888,0,333
37636,0.992,0.208,0.18,0.49,2.23,2.57,-74.507,49.131,40.888,0,306
37656,0.992,0.204,0.164,0.97,2.99,2.3,-75.224,51.207,40.888,0,293
37678,0.98,0.212,0.188,1.74,3.34,2.3,-74.423,50.305,40.888,0,293
37698,0.988,0.212,0.16,2.02,4.1,2.3,-75.586,50.778,40.888,0,300
37720,0.976,0.2,0.192,2.5,2.43,2.5,-74.973,46.851,40.907,0,325
37740,0.98,0.2,0.18,1.39,2.02,2.43,-74.652,48.016,40.945,0,338
37761,0.988,0.2,0.18,0.83,2.16,2.3,-74.771,48.016,40.993,0,341
37782,0.984,0.204,0.184,-0.21,2.71,2.85,-74.406,47.954,40.971,0,342
37803,0.984,0.208,0.188,-0.7,2.99,2.92,-74.102,47.895,40.997,0,317
37823,0.984,0.204,0.188,-0.97,2.57,2.99,-74.261,47.341,40.997,0,309
37844,0.984,0.204,0.184,-0.56,2.5,2.85,-74.406,47.954,40.997,0,306
37865,0.984,0.208,0.18,0.21,2.43,2.57,-74.448,49.131,40.997,0,304
37886,0.984,0.208,0.184,0.07,2.3,2.37,-74.321,47.341,40.997,1,307
37907,0.98,0.204,0.192,0.28,2.37,1.67,-74.261,47.341,41.097,1,337
37927,0.984,0.204,0.188,0.42,2.71,1.81,-74.261,47.341,40.844,1,349
37949,0.98,0.208,0.18,0.07,3.06,2.43,-74.327,49.131,40.971,1,363
37969,0.98,0.208,0.184,1.04,2.23,2.57,-74.184,48.507,40.976,1,353
37990,0.984,0.216,0.188,0.42,2.5,2.71,-73.78,48.968,40.908,1,329
38011,0.992,0.216,0.18,-1.46,3.69,2.78,-74.181,50.198,40.877,1,319
38032,0.992,0.212,0.188,0.28,3.41,2.23,-74.526,47.954,40.877,1,449
38052,0.984,0.208,0.196,0.42,2.16,2.16,-73.426,45.003,40.877,1,248
38074,0.98,0.208,0.212,-1.88,0.63,2.43,-72.603,43.427,40.877,1,240
