Time,ax,ay,az,gx,gy ,gz ,r ,p,y,manual,heart
98,0.956,0.228,0.216,-3.97,3.83,5.36,-71.819,46.552,42.708,0,170
118,0.96,0.232,0.18,-1.32,1.81,6.89,-72.998,52.197,42.708,0,166
139,0.976,0.228,0.212,1.88,0.42,6.19,-72.313,47.086,42.708,0,165
160,0.98,0.22,0.192,1.95,1.04,5.29,-73.414,48.892,42.708,0,171
181,0.984,0.224,0.212,1.95,2.16,5.36,-72.603,46.58,42.708,0,186
201,0.98,0.22,0.196,1.04,3.13,6.19,-73.272,48.305,42.65,0,237
223,0.972,0.228,0.2,0.83,2.85,5.7,-73.046,48.818,42.529,0,254
243,0.964,0.228,0.204,0.97,2.5,5.29,-72.77,48.243,42.688,0,253
264,0.968,0.224,0.204,0.56,2.43,5.01,-72.626,47.679,42.493,0,234
284,0.984,0.232,0.204,1.25,2.5,4.66,-72.575,48.678,42.486,0,193
306,0.98,0.236,0.22,-1.04,2.3,4.87,-71.783,47.013,42.428,0,177
326,0.968,0.236,0.192,-1.18,2.99,3.62,-72.558,50.873,42.428,0,170
347,0.964,0.236,0.208,-0.14,2.3,3.9,-71.932,48.612,42.428,0,175
367,0.972,0.236,0.204,-1.32,1.46,3.9,-72.212,49.163,42.428,0,179
389,0.964,0.224,0.204,-1.53,0.97,3.83,-72.558,47.679,42.428,0,219
409,0.972,0.216,0.208,-1.39,0.9,3.62,-72.914,48.818,42.281,0,237
430,0.972,0.22,0.204,-1.88,1.53,3.27,-72.918,47.165,42.375,0,248
451,0.972,0.216,0.196,-1.32,1.25,3.27,-73.08,45.549,42.384,0,256
472,0.972,0.22,0.208,-0.49,0.9,3.48,-72.704,46.609,42.154,0,244
492,0.976,0.22,0.2,0,0.63,3.55,-73.063,47.73,42.258,0,233
513,0.976,0.212,0.204,0.63,0.77,3.9,-73.23,46.105,42.258,0,214
534,0.98,0.216,0.196,0.28,1.46,3.9,-73.431,47.783,42.258,0,213
555,0.976,0.22,0.196,-0.97,1.95,3.9,-73.207,48.305,42.258,0,220
575,0.968,0.212,0.196,-0.14,1.32,3.48,-73.397,47.249,42.258,0,388
595,0.968,0.216,0.204,-1.04,1.6,3.13,-72.997,47.73,42.191,0,162
617,0.968,0.224,0.212,-2.64,0.9,3.69,-72.548,47.125,42.165,0,284
637,0.968,0.208,0.172,-0.63,-0.07,3.62,-74.185,53.977,42.241,0,297
658,0.984,0.216,0.192,-3.27,3.2,3.55,-73.638,48.37,42.108,0,297
678,0.968,0.22,0.208,-4.38,3.55,4.45,-72.637,46.609,42.248,0,278
700,0.972,0.236,0.192,-0.28,1.39,4.31,-72.625,50.873,42.248,0,276
720,0.98,0.22,0.204,1.18,1.32,2.78,-72.983,47.165,42.248,0,275
741,0.98,0.212,0.216,1.18,1.6,2.23,-72.843,44.468,42.248,0,281
762,0.976,0.216,0.204,0.9,2.16,2.16,-73.075,46.64,42.248,0,320
783,0.972,0.216,0.208,-0.07,2.43,2.5,-72.793,46.084,41.955,0,352
803,0.972,0.208,0.208,1.11,1.11,2.37,-72.949,45.549,41.866,0,359
824,0.968,0.208,0.208,1.04,0.83,2.78,-73.102,45.003,42.169,0,342
845,0.972,0.216,0.2,0.83,1.11,2.5,-73.156,47.206,41.994,0,316
866,0.976,0.208,0.192,2.64,2.16,2.43,-73.832,47.294,42.079,0,272
886,0.98,0.228,0.24,0.28,1.81,3.13,-71.341,43.534,42.079,0,263
907,0.972,0.22,0.196,0.28,2.92,2.43,-73.142,48.305,42.079,0,260
928,0.976,0.216,0.212,1.67,1.95,2.78,-72.777,45.539,42.079,0,264
949,0.976,0.216,0.212,0.07,1.88,2.78,-72.777,45.539,42.079,0,282
969,0.968,0.216,0.212,0.42,1.25,2.57,-72.929,45.003,41.776,0,308
991,0.972,0.216,0.212,-0.07,1.32,2.57,-72.548,47.125,41.976,0,325
1011,0.968,0.216,0.208,-0.56,0.7,1.53,-72.264,46.58,42.225,0,329
1032,0.972,0.212,0.208,-0.49,0.49,1.53,-73.015,45.549,42.14,1,339
1052,0.972,0.22,0.2,0.77,-0.14,1.53,-72.997,47.73,42.137,1,307
1074,0.976,0.22,0.196,1.11,0.14,2.09,-73.207,48.305,42.137,1,293
1094,0.98,0.224,0.204,0.21,0.56,2.43,-72.826,47.679,42.137,1,298
1115,0.984,0.22,0.208,0.9,-0.07,2.92,-72.903,46.609,42.137,1,298
1136,0.976,0.232,0.216,1.04,0.14,2.57,-72.013,47.049,42.137,1,293
1157,0.964,0.224,0.204,0.28,0.7,1.81,-72.943,48.305,42.057,1,325
1177,0.964,0.216,0.196,0.42,0.97,1.39,-73.302,47.783,42.112,1,348
1199,0.972,0.216,0.196,-0.14,1.11,2.3,-72.559,45.003,42.22,1,497
1219,0.972,0.216,0.212,-1.46,0.28,2.16,-72.71,45.539,42.228,1,219
1240,0.984,0.224,0.212,1.39,-0.21,2.43,-72.603,46.58,42.216,1,337
1261,0.96,0.236,0.184,-0.35,-0.42,2.99,-72.692,52.062,42.216,1,318
1282,0.984,0.22,0.216,-4.31,2.37,2.5,-72.608,45.529,42.216,1,317
1302,0.98,0.208,0.192,-1.11,2.57,2.57,-73.894,47.294,42.216,1,314
1324,0.972,0.236,0.212,2.57,0.28,3.2,-71.93,48.07,42.216,1,320
1344,0.976,0.216,0.212,3.55,0.07,1.32,-72.995,45.003,42.181,1,358
1364,0.98,0.216,0.212,2.92,0.63,1.18,-72.682,47.125,42.029,1,380
1385,0.972,0.228,0.204,1.6,1.81,1.04,-72.743,48.747,42.108,1,404
1406,0.976,0.22,0.204,0.9,2.78,1.95,-72.918,47.165,42.241,1,416
1427,0.976,0.228,0.2,2.64,1.32,1.88,-72.743,48.747,42.212,1,384
1447,0.972,0.232,0.208,2.09,1.74,2.16,-72.231,48.126,42.179,1,337
1469,0.972,0.228,0.2,1.6,2.09,2.02,-72.676,48.747,42.179,1,301
1489,0.976,0.224,0.196,4.03,2.43,1.18,-73.046,48.818,42.179,1,284
1510,0.976,0.236,0.228,2.85,1.74,1.6,-72.013,47.049,42.179,1,280
1531,0.972,0.224,0.188,2.64,1.46,1.39,-72.322,47.63,42.152,1,317
1552,0.976,0.228,0.224,2.78,1.32,1.67,-73.14,46.64,42.596,1,333
1572,0.98,0.22,0.2,1.53,1.04,1.74,-72.534,48.183,42.485,1,348
1594,0.976,0.228,0.204,0.97,0.77,2.23,-72.601,48.183,42.665,1,350
1614,0.984,0.232,0.2,0.21,0.9,2.09,-72.715,49.24,42.586,1,327
1635,0.976,0.228,0.216,0.14,1.11,2.16,-72.167,46.552,42.58,1,310
1656,0.976,0.224,0.212,0.9,0.49,1.95,-72.469,46.58,42.58,1,298
1677,0.976,0.236,0.208,1.46,0.21,2.16,-72.14,48.612,42.58,1,294
1697,0.972,0.236,0.204,1.18,0.56,1.6,-72.072,48.612,42.58,1,288
1718,0.968,0.224,0.2,1.32,0,2.37,-72.77,48.243,42.58,1,328
1739,0.968,0.228,0.204,1.67,-0.35,2.85,-72.76,47.679,42.476,1,348
1760,0.972,0.236,0.204,1.53,-0.56,2.78,-72.212,49.163,42.719,1,350
1780,0.972,0.232,0.196,0.35,-0.42,2.64,-72.653,49.812,42.446,1,360
1802,0.976,0.236,0.196,0.07,-0.35,2.37,-72.556,50.294,42.601,1,351
1822,0.98,0.232,0.204,-0.07,-0.56,2.09,-72.508,48.678,42.527,1,465
1843,0.984,0.236,0.208,-0.07,-0.97,2.02,-72.277,48.612,42.527,1,204
1864,0.976,0.236,0.2,0.21,-2.16,2.37,-72.419,49.724,42.527,1,351
1885,0.972,0.232,0.136,0.9,-1.88,2.09,-73.023,53.29,42.527,1,350
1905,0.976,0.228,0.22,-1.74,-0.83,1.53,-73.507,46.672,42.527,1,389
1927,0.976,0.212,0.192,-0.7,-0.07,1.95,-73.064,52.197,42.536,1,425
1947,0.972,0.228,0.196,3.2,-0.9,1.88,-72.817,49.32,42.705,1,443
1968,0.984,0.224,0.176,2.92,0.49,0.35,-73.86,51.847,42.579,1,458
1989,0.984,0.228,0.192,3.2,1.18,0.9,-73.153,49.903,42.497,1,455
2010,0.98,0.236,0.192,2.5,1.6,1.18,-72.759,50.873,42.462,1,433
2030,0.976,0.24,0.188,2.02,0.9,1.46,-72.658,51.931,42.462,1,422
2051,0.984,0.244,0.188,2.37,0.9,1.74,-72.623,52.39,42.462,1,406
2072,0.976,0.236,0.184,2.37,1.32,2.3,-72.625,50.873,42.462,1,384
2093,0.972,0.236,0.192,2.02,0.77,2.02,-72.827,52.062,42.462,1,376
2113,0.972,0.236,0.18,1.74,1.46,1.46,-73.328,52.819,42.734,1,385
2135,0.976,0.244,0.212,0.07,1.95,1.74,-71.681,49.018,42.583,1,392
2155,0.968,0.232,0.18,1.32,2.37,0.9,-73.13,52.197,42.812,1,396
2176,0.976,0.236,0.196,2.3,0.83,1.32,-72.556,50.294,42.73,1,387
2197,0.984,0.244,0.184,1.46,0.83,1.04,-72.752,52.984,42.731,1,348
2217,0.976,0.248,0.192,0.7,0.63,1.74,-72.191,52.257,42.731,1,332
2238,0.984,0.248,0.192,1.53,1.46,1.46,-72.06,51.684,42.731,1,322
2259,0.98,0.244,0.2,1.32,1.81,0.97,-72.593,51.344,42.731,1,312
2280,0.98,0.248,0.2,1.04,1.81,1.46,-72.157,51.23,42.731,1,321
2300,0.968,0.248,0.192,0.9,0.9,1.81,-72.524,51.931,42.995,1,346
2322,0.972,0.244,0.188,1.88,0.42,2.02,-72.422,52.39,42.926,1,360
2342,0.964,0.24,0.184,1.6,0.14,2.23,-72.588,52.528,42.95,1,367
2363,0.964,0.24,0.192,1.95,-0.21,2.43,-72.322,51.344,43.056,1,356
2384,0.972,0.256,0.18,0.14,0.42,2.64,-72.159,54.892,42.885,1,324
2405,0.972,0.248,0.192,0,0.14,3.34,-72.122,52.257,42.885,1,323
2425,0.976,0.252,0.192,0.63,-0.77,2.71,-72.252,52.839,42.885,1,414
2447,0.98,0.248,0.196,1.11,0.14,2.78,-71.922,53.134,42.885,1,217
2467,0.984,0.252,0.192,1.25,-0.28,2.57,-72.632,54.642,42.885,1,330
2488,0.956,0.236,0.14,2.3,-2.92,2.43,-73.99,59.327,42.975,1,352
2509,0.968,0.236,0.176,-1.39,0.77,2.37,-73.089,53.29,42.934,1,363
2530,0.956,0.24,0.172,-1.46,-0.77,2.99,-72.842,54.376,42.93,1,374
2550,0.976,0.248,0.184,2.92,-1.81,2.85,-72.448,53.431,42.963,1,380
2572,0.996,0.236,0.164,3.13,0.35,0.97,-73.91,55.208,43.036,1,353
2592,0.98,0.244,0.188,2.37,0.49,2.23,-72.557,52.39,42.999,1,351
2613,0.988,0.248,0.188,1.74,0.9,2.64,-72.104,54.297,42.999,1,355
2633,0.98,0.252,0.184,2.3,0,2.64,-72.333,54.466,42.999,1,351
2655,0.972,0.256,0.18,1.04,-0.28,2.64,-72.632,54.642,42.999,1,345
2675,0.968,0.248,0.172,2.5,-1.11,2.57,-72.689,55.261,43.016,1,352
2696,0.976,0.244,0.168,2.02,-0.28,2.78,-73.121,55.456,42.947,1,348
2717,0.968,0.248,0.168,2.23,-0.35,3.27,-72.811,55.89,43.048,1,350
2738,0.972,0.252,0.204,-0.77,1.18,3.41,-71.559,51.013,43.052,1,349
2758,0.972,0.252,0.168,-0.14,0.56,3.2,-72.699,56.314,42.837,1,324
2780,0.98,0.252,0.168,-0.07,-0.28,3.48,-72.832,56.314,42.789,1,317
2800,0.98,0.252,0.184,0,-0.07,2.85,-72.724,55.073,42.789,1,306
2821,0.988,0.248,0.172,-0.42,0.28,3.83,-73.095,57.36,42.789,1,297
2842,0.984,0.256,0.164,0.63,-0.49,3.9,-72.832,54.642,42.789,1,293
2863,0.972,0.244,0.168,0.63,-0.21,3.13,-73.055,55.456,42.789,1,323
2883,0.968,0.244,0.18,2.16,-0.35,3.55,-72.613,53.588,42.927,1,337
2905,0.98,0.236,0.172,3.62,-0.77,3.13,-73.412,53.919,42.943,1,352
2925,0.976,0.24,0.18,3.69,-0.28,4.1,-72.919,53.134,42.968,1,356
2946,1.008,0.236,0.18,3.97,-0.9,3.69,-73.598,52.671,42.886,1,328
2967,0.98,0.244,0.168,3.27,-0.56,3.83,-73.298,55.012,42.995,1,308
2988,0.976,0.236,0.168,3.76,-0.63,2.99,-73.005,54.201,42.995,1,306
3008,0.984,0.244,0.168,3.2,-0.63,2.99,-73.552,56.75,42.995,1,379
3030,0.984,0.24,0.172,4.8,-0.9,3.83,-73.193,56.528,42.995,1,226
3050,0.976,0.248,0.172,3.76,-0.28,3.69,-72.822,55.261,42.995,1,335
3070,0.956,0.244,0.088,6.4,-3.83,2.92,-74.825,70.173,42.743,1,336
3092,0.98,0.24,0.168,0.9,-0.42,2.78,-73.362,55.012,42.858,1,347
3112,0.96,0.252,0.152,0,-2.37,4.17,-72.962,58.907,42.866,1,352
3133,0.968,0.24,0.152,3.62,-2.92,3.2,-73.65,57.657,42.783,1,345
3153,0.992,0.248,0.14,2.71,-1.25,2.02,-73.697,60.26,42.892,1,322
3175,0.996,0.256,0.152,2.16,-0.97,2.5,-73.19,58.647,42.892,1,315
3195,0.988,0.252,0.16,2.09,-0.77,3.34,-73.194,57.592,42.892,1,315
3216,0.984,0.256,0.148,1.32,-0.28,3.06,-73.279,59.971,42.892,1,318
3237,0.968,0.248,0.152,1.11,-0.77,3.06,-73.28,58.5,42.892,1,332
3258,0.976,0.244,0.152,1.18,-0.21,2.85,-73.594,58.083,42.803,1,336
3278,0.976,0.248,0.16,1.67,-0.07,3.06,-73.181,57.176,42.94,1,335
3300,0.976,0.24,0.12,2.5,0.83,2.85,-74.633,63.44,42.815,1,335
3320,0.976,0.24,0.188,0.35,1.32,3.2,-72.658,51.931,42.896,1,332
3341,0.976,0.244,0.136,-1.25,0.49,3.62,-73.257,60.647,42.836,1,305
3362,0.976,0.256,0.184,-1.32,0.97,3.69,-73.079,56.948,42.836,1,289
3383,0.988,0.252,0.14,-0.56,1.25,3.69,-73.863,60.95,42.836,1,281
3403,0.984,0.252,0.144,-1.81,3.83,4.38,-73.571,60.26,42.836,1,275
3425,0.968,0.236,0.144,0.21,1.81,3.48,-74.066,58.614,42.836,1,299
3445,0.968,0.244,0.14,-0.9,2.43,3.2,-73.801,60.159,42.826,1,323
3466,0.976,0.24,0.144,-0.63,1.6,3.83,-74.004,59.041,42.543,1,333
3487,0.968,0.236,0.144,1.32,2.78,3.62,-74.066,58.614,42.475,1,344
3508,0.972,0.236,0.144,0.35,4.52,2.57,-73.942,59.041,42.71,0,339
3528,0.976,0.24,0.144,0.49,4.45,3.27,-73.478,57.412,42.678,0,311
3550,0.972,0.244,0.152,-0.49,4.52,3.2,-73.371,56.098,42.678,0,295
3570,0.976,0.248,0.156,-0.42,2.23,3.13,-73.115,57.176,42.678,0,321
3591,0.984,0.244,0.148,0,0.97,3.2,-73.832,58.765,42.678,0,308
3612,0.98,0.24,0.144,0.21,1.53,3.97,-74.066,59.041,42.678,0,232
3633,0.992,0.232,0.16,3.13,0.56,3.97,-74.146,55.412,42.644,0,329
3653,0.968,0.244,0.164,-0.21,1.18,3.76,-73.111,56.098,42.659,0,343
3675,0.976,0.232,0.144,-2.85,1.32,3.2,-74.375,58.177,42.573,0,352
3695,0.976,0.236,0.156,-0.14,-0.83,4.03,-74.203,56.772,42.611,0,358
3716,0.988,0.236,0.156,0.21,0.7,3.69,-74.799,57.016,42.528,0,336
3737,1,0.236,0.156,-1.32,1.53,3.48,-74.077,58.344,42.528,0,327
3758,0.98,0.24,0.144,-0.14,1.46,4.17,-74.066,59.041,42.528,0,324
3778,0.984,0.24,0.144,0.42,1.11,3.69,-74.128,59.041,42.528,0,329
3800,0.98,0.248,0.152,0.42,0.63,2.64,-73.474,58.5,42.528,0,334
3820,0.984,0.236,0.148,0.56,1.04,2.16,-74.199,57.912,42.588,0,358
3841,0.984,0.236,0.156,0.77,1.11,2.09,-73.966,56.539,42.408,0,357
3862,0.984,0.232,0.128,1.81,2.02,1.67,-74.935,61.118,42.379,0,357
3883,0.976,0.236,0.172,-0.49,3.2,1.67,-73.65,56.539,42.417,0,362
3903,0.984,0.244,0.148,1.11,3.62,0.77,-73.677,56.75,42.653,0,335
3924,0.988,0.244,0.136,-0.56,2.85,0.77,-73.474,58.5,42.689,0,320
3945,0.988,0.24,0.16,0.07,2.57,0.14,-73.73,56.314,42.689,0,310
3965,0.992,0.248,0.16,-0.14,2.43,1.11,-73.437,57.176,42.689,0,311
3987,0.996,0.248,0.156,-0.21,2.71,0.83,-73.614,57.833,42.689,0,308
4007,0.988,0.236,0.156,0.28,1.53,1.46,-74.027,56.539,42.798,0,337
4028,0.976,0.244,0.156,0.49,1.74,1.74,-73.478,57.412,42.653,0,348
4049,0.976,0.248,0.156,0.28,2.23,1.53,-73.29,58.907,42.746,0,356
4070,0.976,0.244,0.16,0.7,1.6,1.95,-73.596,56.98,42.819,0,362
4090,0.984,0.244,0.16,0.35,1.6,2.71,-73.307,58.245,43.105,0,332
4112,0.988,0.248,0.164,0.63,1.95,2.57,-73.257,56.528,43.008,0,314
4132,0.98,0.252,0.156,0.7,1.04,2.43,-73.179,58.245,43.008,0,306
4153,0.976,0.248,0.156,-0.56,1.67,2.43,-73.296,57.833,43.008,0,352
4174,0.984,0.252,0.164,1.32,1.04,2.92,-73.015,56.948,43.008,0,283
4195,0.984,0.248,0.152,0.97,0.7,2.92,-73.538,58.5,43.008,0,266
4215,0.98,0.248,0.168,4.73,-0.77,2.64,-73.009,55.89,42.679,0,348
4237,0.964,0.248,0.116,0.07,0.42,3.62,-72.049,49.089,42.764,0,362
4257,0.98,0.24,0.156,-3.76,2.64,2.85,-73.909,60.87,42.844,0,372
4278,0.964,0.252,0.144,0.49,0,3.34,-73.085,59.971,42.92,0,357
4298,0.992,0.252,0.164,1.39,1.74,2.57,-73.144,56.948,42.867,0,341
4320,1,0.248,0.148,0.35,2.5,1.88,-73.896,59.177,42.867,0,334
4340,0.992,0.256,0.156,-0.35,4.17,3.27,-73.19,58.647,42.867,0,334
4361,0.996,0.252,0.164,0.07,2.92,3.48,-73.208,56.948,42.867,0,338
4382,0.98,0.248,0.152,-0.35,2.99,3.34,-73.474,58.5,42.867,0,359
4403,0.984,0.248,0.148,-0.35,2.71,3.41,-73.648,59.177,42.831,0,361
4423,0.984,0.24,0.152,-0.14,2.71,4.03,-74.066,59.041,42.858,0,357
4445,0.98,0.24,0.14,1.04,2.92,3.69,-73.926,60.559,43.105,0,352
4465,0.976,0.248,0.176,-2.02,3.76,3.48,-72.844,55.689,42.842,0,341
4486,0.984,0.252,0.164,-1.39,3.76,3.2,-73.015,56.948,42.83,0,318
4507,0.984,0.248,0.144,-0.77,3.76,2.85,-73.757,59.863,42.83,0,310
4528,0.988,0.248,0.188,-1.53,4.17,3.2,-72.522,52.839,42.83,0,304
4548,0.988,0.248,0.156,-0.9,4.45,3.06,-73.488,57.833,42.83,0,303
4570,0.984,0.236,0.16,-0.97,4.52,4.1,-73.846,55.868,42.83,0,320
4590,0.984,0.236,0.168,-1.04,4.45,4.38,-74.022,57.22,42.733,0,337
4611,0.972,0.236,0.156,-0.77,3.76,4.59,-73.41,54.558,42.662,0,350
4632,0.976,0.24,0.168,0.21,2.92,4.31,-73.541,56.314,42.609,0,353
4653,0.972,0.232,0.156,0.97,1.6,4.1,-73.362,55.012,42.707,0,353
4673,0.984,0.24,0.172,0.83,1.25,3.41,-73.302,54.376,42.814,0,325
4695,0.984,0.244,0.18,0.56,1.32,3.27,-72.879,53.588,42.814,0,322
4715,0.984,0.244,0.176,0.21,2.02,3.34,-73.005,54.201,42.814,0,309
4736,0.988,0.252,0.164,-0.56,2.5,3.34,-73.079,56.948,42.814,0,307
4757,0.992,0.244,0.172,-0.77,3.13,2.92,-73.257,54.823,42.814,0,318
4777,0.98,0.244,0.168,-1.39,3.13,2.43,-73.167,55.012,42.458,0,421
4798,0.976,0.232,0.172,0.21,2.85,2.5,-72.416,52.984,42.502,0,277
4819,0.968,0.244,0.176,0,1.32,1.88,-72.989,55.456,42.535,0,326
4840,0.964,0.236,0.124,5.63,-0.77,1.81,-74.547,62.286,42.611,0,363
4860,0.976,0.236,0.22,-0.35,1.11,2.78,-71.713,47.013,42.712,0,336
4882,0.964,0.24,0.172,-3.48,1.11,3.06,-72.976,54.376,42.712,0,330
4902,0.984,0.232,0.164,2.02,-0.07,3.2,-73.9,54.748,42.712,0,328
4923,1.004,0.24,0.172,1.39,1.53,2.16,-73.617,54.376,42.712,0,322
4944,1.012,0.232,0.172,0.83,2.78,2.3,-74.078,53.451,42.712,0,336
4965,1,0.248,0.168,0.7,3.9,2.57,-72.963,56.314,42.579,0,368
4985,0.976,0.252,0.168,0.77,2.92,2.5,-73.414,57.412,42.659,0,382
5007,0.964,0.252,0.164,1.88,1.18,2.23,-72.989,55.456,42.752,0,387
5027,0.96,0.24,0.168,1.95,1.04,2.09,-73.035,55.012,42.732,0,376
5048,0.972,0.24,0.168,1.74,1.18,2.5,-73.233,55.012,42.615,0,330
5069,0.988,0.232,0.156,2.5,2.5,2.23,-74.206,56.087,42.615,0,308
5090,0.988,0.248,0.192,-1.46,4.38,1.81,-72.394,52.257,42.615,0,304
5110,1,0.236,0.156,-0.83,5.43,2.57,-74.209,56.539,42.615,0,302
5132,0.988,0.248,0.164,0.07,4.17,2.02,-73.296,57.833,42.615,0,306
5152,0.976,0.248,0.18,-1.53,4.59,1.95,-72.389,55.073,42.874,0,337
5173,0.972,0.248,0.172,0.35,3.41,1.88,-72.457,55.073,42.801,0,345
5194,0.968,0.244,0.168,-0.83,2.71,1.6,-72.613,53.588,42.797,0,356
5215,0.972,0.236,0.176,-0.83,3.48,2.16,-73.155,53.29,42.858,0,357
5235,0.98,0.236,0.18,-0.56,3.48,2.02,-73.156,52.671,42.894,0,330
5257,0.988,0.244,0.18,-0.28,3.97,2.09,-72.945,53.588,42.894,0,316
5277,1,0.24,0.176,-0.97,4.8,2.99,-73.431,53.75,42.894,0,309
5298,0.98,0.244,0.184,-0.35,3.34,2.57,-72.686,52.984,42.894,0,307
5319,0.968,0.252,0.188,0,3.13,2.43,-72.265,54.466,42.894,0,312
5340,0.964,0.244,0.184,1.11,1.67,2.09,-72.139,53.869,42.858,0,342
5360,0.964,0.248,0.188,0.21,1.39,2.02,-72.49,52.39,43.162,0,344
5381,0.972,0.24,0.184,0.28,1.95,2.57,-72.723,52.528,42.967,0,354
5402,0.964,0.24,0.176,-0.63,2.37,1.81,-72.848,53.75,43.081,0,360
5423,0.988,0.244,0.176,-1.25,3.76,2.64,-73.07,54.201,43.056,0,437
5443,0.992,0.244,0.192,0.14,4.17,1.95,-72.626,51.805,43.081,0,233
5465,0.976,0.256,0.196,-0.28,3.55,2.57,-71.725,52.565,43.081,0,311
5485,0.964,0.248,0.132,1.95,0.7,2.09,-73.758,61.98,43.081,0,312
5506,0.976,0.252,0.212,-3.34,2.3,2.02,-72.191,52.257,43.081,0,312
5527,0.96,0.248,0.188,-1.25,0,3.41,-72.729,56.528,43.081,0,347
5548,0.968,0.248,0.18,2.16,-0.7,3.55,-71.889,49.018,43.069,0,364
5568,0.988,0.228,0.172,0.21,1.6,1.6,-73.882,52.974,42.975,0,376
5590,1,0.228,0.188,0.56,4.66,2.02,-73.542,50.496,43.032,0,388
5610,1.016,0.252,0.188,-1.39,7.03,2.85,-72.811,53.28,42.987,0,381
5630,1,0.256,0.188,-0.7,7.58,2.5,-72.385,53.711,42.922,0,368
5652,0.98,0.264,0.172,-0.35,8.56,2.85,-72.182,56.919,42.922,0,349
5672,0.972,0.256,0.188,1.18,8.77,2.5,-71.91,53.711,42.922,0,326
5693,0.968,0.256,0.192,-0.56,8.35,2.02,-71.769,53.711,42.922,0,305
5714,0.952,0.236,0.18,0.9,9.53,1.81,-73.086,53.919,42.922,0,322
5735,0.968,0.244,0.192,-3.41,11.69,2.37,-71.33,47.964,43.293,0,337
5755,0.976,0.236,0.188,-1.88,13.08,2.3,-72.826,51.463,43.286,0,351
5777,0.96,0.232,0.196,-0.21,11.76,2.37,-72.45,49.812,43.261,0,361
5797,0.968,0.24,0.224,-0.56,10.57,1.95,-71.271,46.978,43.372,0,357
5818,0.972,0.252,0.228,-0.9,9.95,1.46,-70.734,47.866,43.441,0,336
5839,0.964,0.256,0.228,-1.25,10.57,2.23,-70.429,48.314,43.441,0,332
5860,0.952,0.252,0.228,-1.25,9.88,2.43,-70.376,46.448,43.441,0,325
5880,0.944,0.244,0.24,-1.04,8,2.92,-70.079,45.943,43.441,0,317
5902,0.948,0.248,0.232,-0.28,7.79,2.02,-70.38,45.958,43.441,0,338
5922,0.952,0.236,0.228,-0.21,7.1,3.2,-70.987,45.991,44.038,0,360
5943,0.948,0.236,0.24,0.14,6.26,3.55,-70.457,44.522,43.81,0,358
5964,0.944,0.236,0.24,0.77,5.15,3.41,-70.381,44.522,43.639,0,377
5985,0.948,0.248,0.236,0.63,4.24,3.13,-70.149,46.424,43.964,0,373
6005,0.952,0.252,0.24,0.56,3.83,3.34,-69.925,46.401,43.708,0,339
6027,0.952,0.248,0.244,0.07,3.62,3.2,-69.93,45.469,43.708,0,330
6047,0.948,0.248,0.236,0.7,2.85,3.55,-70.528,46.448,43.708,0,361
6068,0.952,0.244,0.236,1.53,2.43,3.62,-70.004,45.003,43.708,0,359
6089,0.96,0.244,0.256,0.42,2.02,3.9,-70.008,44.537,43.708,0,237
6110,0.944,0.224,0.204,8,-2.99,3.06,-72.212,47.679,43.713,0,365
6130,0.948,0.244,0.256,1.6,-2.85,5.29,-69.547,43.628,43.702,0,375
6151,0.96,0.244,0.236,-3.13,1.6,4.1,-70.531,45.958,43.682,0,384
6172,0.944,0.244,0.208,2.37,-1.74,4.24,-71.245,49.557,43.784,0,388
6193,0.972,0.244,0.24,5.01,-1.81,2.37,-70.608,45.477,43.644,0,362
6213,0.976,0.24,0.212,4.03,0.21,1.67,-71.841,48.548,43.644,0,353
6235,0.968,0.244,0.228,3.83,0.07,2.09,-71.172,48.427,43.644,0,358
6255,0.972,0.248,0.22,3.34,0.56,2.92,-70.728,48.37,43.644,0,362
6276,0.96,0.256,0.224,3.41,-0.28,3.06,-70.406,49.329,43.644,0,369
6297,0.96,0.248,0.22,2.92,-0.35,2.64,-70.954,48.427,43.79,0,380
6318,0.956,0.24,0.22,2.16,0.63,2.99,-71.198,47.493,43.87,0,367
6338,0.952,0.244,0.22,1.74,0.49,3.13,-70.966,47.964,43.823,0,357
6360,0.952,0.244,0.22,2.3,0.56,2.64,-70.966,47.964,43.624,0,357
6380,0.968,0.256,0.244,0.7,0.35,3.06,-69.936,46.378,43.693,0,326
6401,0.964,0.248,0.2,0.9,1.81,3.83,-71.3,50.017,43.693,0,316
6422,0.964,0.248,0.236,1.88,0.49,4.1,-71.414,46.978,43.693,0,310
6443,0.968,0.244,0.22,-0.21,0.9,3.83,-70.369,47.37,43.693,0,308
6463,0.964,0.248,0.232,0.63,-0.35,2.64,-70.898,46.945,43.693,0,309
6483,0.964,0.248,0.224,-0.28,0.97,3.06,-70.886,47.914,43.68,0,336
6505,0.956,0.24,0.22,-0.9,0.97,3.69,-71.198,47.493,43.858,0,349
6525,0.956,0.24,0.22,-0.28,0.21,3.69,-71.198,47.493,43.678,0,351
6546,0.964,0.236,0.216,-0.14,0.49,3.76,-71.646,47.537,43.647,0,356
6567,0.964,0.248,0.216,0.14,0.56,3.97,-71.168,48.949,43.71,0,329
6588,0.964,0.244,0.224,-0.35,0.49,3.9,-71.043,47.451,43.736,0,317
6608,0.968,0.24,0.22,0.9,0.21,3.55,-70.898,46.945,43.736,0,307
6630,0.96,0.244,0.22,0.49,-0.07,3.34,-70.954,48.427,43.736,0,310
6650,0.964,0.248,0.212,0.14,-0.56,2.92,-71.307,49.479,43.736,0,311
6671,0.96,0.24,0.22,0.77,-1.81,0.83,-71.271,47.493,43.749,0,328
6692,0.956,0.236,0.204,-0.07,-0.21,2.64,-71.933,49.163,43.52,0,342
6713,0.956,0.232,0.204,0.42,-0.21,3.27,-72.097,48.678,43.421,0,352
6733,0.952,0.236,0.208,-0.07,-0.35,3.55,-71.72,48.612,43.708,0,472
6755,0.972,0.244,0.22,-1.32,0,2.64,-71.33,47.964,43.553,0,226
6775,0.972,0.252,0.228,3.83,-1.74,2.43,-72.451,52.528,43.697,0,325
6796,0.952,0.248,0.192,1.25,-2.99,4.8,-70.288,47.819,43.697,0,309
6816,0.972,0.248,0.204,-4.59,0.49,1.81,-71.172,48.427,43.697,0,306
6838,0.956,0.248,0.188,-1.88,0.63,3.41,-71.974,52.839,43.697,0,306
6858,0.972,0.24,0.228,2.3,-1.74,4.17,-71.198,46.472,43.697,0,338
6879,0.968,0.232,0.212,1.53,-1.53,2.37,-72.019,47.583,43.392,0,356
6900,0.956,0.236,0.204,2.43,-1.25,2.23,-71.933,49.163,43.38,0,372
6921,0.96,0.244,0.204,2.57,-0.14,2.16,-71.675,50.106,43.241,0,389
6941,0.968,0.244,0.208,2.85,-1.11,2.85,-71.679,49.557,43.216,0,379
6963,0.972,0.252,0.212,2.3,-1.32,2.57,-71.353,50.468,43.412,0,354
6983,0.972,0.252,0.212,1.53,-0.49,2.71,-71.559,51.013,43.412,0,321
7004,0.964,0.252,0.204,0.56,0.07,2.71,-71.116,50.91,43.412,0,287
7025,0.976,0.248,0.212,1.25,0.63,3.13,-71.521,49.479,43.412,0,273
7046,0.968,0.244,0.212,0.63,1.53,4.03,-71.54,49.018,43.412,0,297
7066,0.964,0.24,0.176,1.46,1.88,3.48,-72.848,53.75,43.478,0,318
7088,0.964,0.244,0.208,0.77,1.11,4.38,-71.608,49.557,43.404,0,334
7108,0.968,0.244,0.196,1.81,0.97,4.03,-72.088,51.23,43.317,0,341
7129,0.96,0.248,0.2,0.56,0.63,1.81,-71.587,50.017,43.346,0,337
7150,0.976,0.252,0.208,0.21,1.25,1.74,-71.559,51.013,43.49,0,310
7171,0.972,0.252,0.196,-1.39,2.37,4.24,-71.691,51.566,43.49,0,294
7191,0.972,0.244,0.204,-0.83,1.04,3.76,-72.023,50.663,43.49,0,289
7213,0.968,0.24,0.2,-0.42,1.18,3.76,-72.118,50.198,43.49,0,286
7233,0.968,0.236,0.196,0.14,1.11,3.69,-72.421,50.294,43.49,0,306
7254,0.956,0.24,0.196,-0.07,1.25,1.88,-72.046,50.766,43.447,0,326
7274,0.964,0.236,0.192,-0.35,1.81,2.37,-72.49,50.873,43.417,0,333
7296,0.956,0.24,0.192,0.14,1.18,3.83,-72.183,51.344,43.31,0,341
7316,0.956,0.236,0.192,-0.21,-0.21,3.55,-72.186,50.766,43.425,0,345
7336,0.964,0.244,0.2,0.07,-0.42,2.23,-71.887,50.106,43.228,0,320
7358,0.972,0.248,0.208,-0.42,0,2.99,-70.991,49.848,43.228,0,314
7378,0.976,0.244,0.208,0,0.21,4.1,-71.819,49.557,43.228,0,300
7399,0.972,0.244,0.208,-0.14,0.97,4.73,-71.75,49.557,43.228,0,297
7420,0.968,0.236,0.196,-0.21,0.77,4.17,-72.421,50.294,43.228,0,308
7441,0.968,0.236,0.204,0.07,0.14,3.27,-72.143,49.163,43.293,0,487
7461,0.96,0.236,0.204,-1.46,0.83,3.9,-72.004,49.163,43.114,0,220
7482,0.972,0.232,0.208,0.83,0.07,4.24,-72.231,48.126,43.097,0,339
7503,0.948,0.236,0.176,2.43,-3.06,5.01,-71.709,51.684,42.934,0,354
7524,0.976,0.244,0.208,-2.99,0.07,4.87,-72.136,48.07,43.04,0,333
7544,0.98,0.24,0.2,-1.18,1.53,1.74,-72.813,53.588,43.04,0,328
7566,0.972,0.244,0.2,2.57,-2.02,4.24,-72.023,50.663,43.04,0,324
7586,0.976,0.236,0.192,2.99,-1.39,3.9,-72.692,50.873,43.04,0,325
7607,0.976,0.236,0.192,1.95,-0.9,2.71,-72.692,50.873,43.04,0,336
7628,0.976,0.236,0.184,1.32,-0.35,2.43,-72.959,52.062,42.946,0,379
7649,0.972,0.236,0.192,1.18,0.21,3.06,-72.625,50.873,42.942,0,404
7669,0.972,0.232,0.184,0.77,0.42,3.27,-73.063,51.586,42.845,0,407
7691,0.968,0.232,0.18,0.9,0.9,2.99,-73.471,51.219,42.926,0,388
7711,0.972,0.232,0.192,-0.56,1.74,3.06,-72.692,50.873,42.934,0,330
7732,0.976,0.244,0.196,-0.42,2.37,3.48,-72.623,50.294,42.955,0,302
7753,0.98,0.236,0.192,1.88,2.64,3.06,-72.759,50.873,42.955,1,292
7774,0.98,0.244,0.188,1.95,2.71,2.23,-72.557,52.39,42.955,1,294
7794,0.984,0.244,0.204,1.18,2.92,2.43,-72.094,50.106,42.955,1,294
7816,0.968,0.236,0.188,1.81,2.92,1.88,-72.693,51.463,43.089,1,328
7836,0.968,0.24,0.192,0.35,2.3,2.37,-72.39,51.344,43.134,1,342
7857,0.968,0.236,0.196,0.28,2.43,2.57,-72.421,50.294,43.024,1,346
7878,0.972,0.236,0.196,0.07,3.2,2.57,-72.256,50.198,42.959,1,350
7899,0.976,0.244,0.208,-0.77,3.2,2.02,-72.025,50.106,42.832,1,326
7919,0.976,0.244,0.2,-0.77,2.92,2.16,-71.7,48.016,42.82,1,314
7940,0.976,0.244,0.208,0.28,2.64,1.6,-71.819,49.557,42.82,1,305
7961,0.972,0.244,0.204,0,2.71,1.6,-71.887,50.106,42.82,1,300
7982,0.976,0.24,0.212,0.14,2.43,1.81,-71.841,48.548,42.82,1,299
8002,0.972,0.236,0.204,0.21,2.57,1.95,-72.212,49.163,42.82,1,328
8024,0.968,0.232,0.2,0.35,2.16,2.16,-72.446,49.24,43.081,1,345
8044,0.968,0.236,0.204,0.14,1.95,2.09,-72.072,48.612,43.109,1,355
8065,0.972,0.236,0.204,0.35,2.09,1.88,-72.212,49.163,43.044,1,366
8086,0.968,0.24,0.2,-0.21,1.81,2.23,-71.45,49.479,43.191,1,340
8107,0.972,0.248,0.204,-0.83,2.02,2.16,-71.921,51.684,43.24,1,320
8127,0.972,0.232,0.204,-0.49,2.23,2.5,-72.373,48.678,43.24,1,313
8147,0.964,0.24,0.204,-0.21,1.32,2.37,-71.911,49.639,43.24,1,453
8169,0.976,0.244,0.212,0.21,0.9,2.3,-71.681,49.018,43.24,1,209
8189,0.972,0.24,0.208,0.56,0,2.85,-71.911,49.089,43.24,1,327
8210,0.956,0.232,0.144,2.09,-0.97,2.43,-74.065,58.177,43.191,1,344
8231,0.968,0.236,0.22,-1.53,0.83,2.16,-72.601,48.183,43.158,1,361
8252,0.968,0.236,0.212,-1.25,2.09,2.71,-72.451,52.528,43.249,1,371
8272,0.956,0.24,0.188,2.78,-1.04,2.37,-71.761,51.566,42.975,1,365
8294,0.992,0.236,0.184,2.43,1.25,0.83,-73.219,52.062,43.326,1,344
8314,0.972,0.236,0.204,2.23,1.11,1.11,-72.212,49.163,43.326,1,344
8335,0.972,0.248,0.204,1.88,1.53,1.67,-71.723,50.564,43.326,1,348
8356,0.972,0.252,0.196,1.46,1.25,2.23,-71.823,52.129,43.326,1,352
8377,0.956,0.248,0.184,0.7,1.04,2.23,-72.104,53.431,43.326,1,366
8397,0.96,0.24,0.192,0.9,0.7,2.23,-72.253,51.344,43.305,1,361
8419,0.968,0.236,0.196,0.28,0.77,2.23,-72.322,51.344,43.101,1,345
8439,0.968,0.24,0.196,0.42,0.97,2.16,-72.049,49.089,43.285,1,338
8460,0.976,0.236,0.184,-1.74,1.53,2.78,-71.152,49.402,43.326,1,335
8481,0.968,0.248,0.188,-0.42,2.57,2.37,-72.183,52.839,43.134,1,307
8502,0.972,0.248,0.208,-0.77,1.95,3.13,-71.587,50.017,43.134,1,301
8522,0.976,0.24,0.204,0.07,1.88,2.3,-72.119,49.639,43.134,1,296
8544,0.972,0.248,0.2,-1.25,2.3,2.78,-71.857,51.119,43.134,1,296
8564,0.968,0.244,0.196,-0.49,2.78,2.64,-72.088,51.23,43.134,1,309
8585,0.964,0.24,0.196,-0.42,3.41,2.23,-72.186,50.766,43.509,1,328
8605,0.964,0.236,0.204,0.63,3.06,1.74,-72.049,50.198,43.314,1,342
8627,0.96,0.244,0.196,0.42,2.85,2.02,-72.283,49.724,43.282,1,346
8647,0.964,0.24,0.2,0.56,2.3,2.23,-71.981,49.639,43.334,1,348
8668,0.968,0.248,0.204,1.04,2.37,2.09,-71.653,50.564,43.412,1,322
8689,0.972,0.252,0.204,0.49,2.5,2.09,-71.559,51.013,43.412,1,311
8710,0.972,0.252,0.204,0.35,2.3,2.23,-71.559,51.013,43.412,1,312
8730,0.972,0.252,0.2,0.35,2.37,1.88,-71.691,51.566,43.412,1,297
8752,0.968,0.248,0.208,-0.28,2.92,1.74,-71.516,50.017,43.412,1,304
8772,0.964,0.244,0.204,0.07,2.78,2.09,-72.144,49.724,43.633,1,331
8793,0.968,0.24,0.2,1.18,2.78,1.95,-71.679,49.557,43.645,1,446
8814,0.96,0.24,0.208,1.67,3.2,1.67,-71.235,49.479,43.498,1,296
8835,0.96,0.24,0.22,0.49,2.5,2.23,-71.628,49.089,43.575,1,315
8855,0.96,0.244,0.148,4.66,0.7,2.09,-73.45,58.765,43.416,1,329
8877,0.976,0.248,0.24,0.42,2.02,2.99,-70.532,45.943,43.416,1,329
8897,0.956,0.256,0.216,-2.23,2.23,3.06,-70.696,49.848,43.416,1,326
8918,0.968,0.252,0.18,3.34,0.56,2.3,-72.265,54.466,43.416,1,326
8939,0.988,0.248,0.212,3.13,2.02,1.04,-71.731,49.479,43.416,1,334
8960,0.972,0.244,0.204,1.25,3.13,1.6,-71.75,49.557,43.318,1,370
8980,0.972,0.248,0.216,2.5,2.85,2.02,-71.054,50.375,43.719,1,389
9000,0.964,0.256,0.208,1.25,2.85,2.3,-71.322,51.453,43.702,1,404
9022,0.96,0.248,0.196,1.88,1.81,2.02,-71.78,51.684,43.739,1,403
9042,0.972,0.244,0.204,2.3,1.11,1.95,-71.887,50.106,43.791,1,363
9063,0.964,0.252,0.204,1.67,1.39,1.95,-71.416,51.013,43.828,1,325
9084,0.964,0.256,0.204,1.53,1.81,1.88,-71.25,51.453,43.828,1,305
9105,0.968,0.252,0.188,0.77,1.81,1.67,-72.012,53.28,43.828,1,299
9125,0.968,0.252,0.22,-0.77,2.71,1.81,-70.941,48.882,43.828,1,298
9147,0.96,0.24,0.2,1.6,2.57,2.16,-71.981,49.639,43.889,1,328
9167,0.964,0.252,0.196,-0.28,1.95,2.57,-70.794,48.882,43.931,1,342
9188,0.964,0.244,0.212,0,1.18,2.64,-70.933,49.402,44.044,1,350
9209,0.96,0.252,0.2,-0.83,1.88,2.99,-71.478,51.566,44.007,1,352
9230,0.96,0.252,0.208,-1.39,1.18,3.06,-71.208,50.468,44.057,1,333
9250,0.96,0.252,0.204,-2.85,-1.04,3.55,-71.344,51.013,44.091,1,315
9271,0.956,0.256,0.216,-1.74,-3.55,4.52,-70.696,49.848,44.091,1,303
9292,0.964,0.252,0.212,0.7,-4.94,3.76,-71.144,49.931,44.091,1,304
9313,0.976,0.248,0.212,0.35,-4.24,3.34,-71.521,49.479,44.091,1,308
9333,0.964,0.244,0.2,0.07,-2.85,2.71,-71.445,50.017,44.091,1,336
9355,0.964,0.248,0.208,-0.77,-1.95,2.57,-71.75,49.557,43.666,1,337
9375,0.964,0.248,0.204,-0.7,-1.32,2.37,-71.857,51.119,43.706,1,347
9396,0.964,0.24,0.196,-0.7,-1.32,2.3,-72.186,50.766,43.71,1,357
9417,0.972,0.248,0.192,0.56,-1.6,2.43,-72.122,52.257,43.809,1,435
9438,0.968,0.252,0.2,0.42,0.28,2.99,-71.621,51.566,43.551,1,245
9458,0.964,0.256,0.2,-1.04,0.49,2.78,-71.382,52.005,43.551,1,301
9480,0.968,0.252,0.148,0.21,-1.04,2.64,-73.206,59.579,43.551,1,308
9500,0.96,0.248,0.224,-1.25,1.88,2.64,-70.812,47.914,43.551,1,313
9521,0.952,0.26,0.2,-3.2,1.53,3.62,-72.165,55.689,43.551,1,340
9542,0.952,0.248,0.168,1.67,0.77,3.41,-71.887,50.106,43.387,1,357
9563,0.972,0.244,0.188,1.6,2.02,1.81,-73.41,54.558,43.682,1,366
9583,0.964,0.248,0.2,0.77,2.16,2.85,-71.717,51.119,43.675,1,380
9605,0.972,0.252,0.2,1.18,1.67,2.92,-71.691,51.566,43.575,1,379
9625,0.968,0.256,0.188,1.25,0.9,2.85,-71.84,53.711,43.498,1,360
9646,0.964,0.252,0.192,1.74,0.42,3.34,-71.813,52.7,43.498,1,345
9667,0.968,0.244,0.188,1.67,0,3.48,-72.354,52.39,43.498,1,321
9688,0.976,0.248,0.192,0.97,1.46,3.48,-71.654,52.565,43.498,1,301
9708,0.968,0.256,0.2,1.25,1.46,2.78,-72.458,51.344,43.498,1,311
9729,0.968,0.244,0.168,-0.42,2.37,2.78,-71.416,51.013,43.461,1,327
9750,0.96,0.248,0.216,-0.35,1.95,3.48,-72.416,52.984,43.501,1,337
9771,0.964,0.244,0.176,1.11,1.11,3.41,-72.673,54.201,43.513,1,350
9791,0.972,0.248,0.204,-0.21,1.25,2.92,-71.723,50.564,43.526,1,351
9812,0.976,0.252,0.204,-0.14,1.6,3.34,-71.629,51.013,43.719,1,325
9833,0.98,0.252,0.196,-0.77,2.16,3.34,-71.962,52.129,43.719,1,312
9853,0.972,0.248,0.196,-0.07,1.88,3.41,-71.99,51.684,43.719,1,304
9875,0.964,0.248,0.192,0.21,1.46,3.13,-71.813,52.7,43.719,1,300
9895,0.964,0.252,0.2,0.49,1.32,2.99,-72,53.869,43.719,1,312
9916,0.964,0.244,0.188,0.14,1.74,3.13,-72.285,52.39,43.433,1,339
9937,0.964,0.248,0.196,0.42,1.74,2.78,-71.851,51.684,43.432,1,352
9958,0.964,0.248,0.196,0.49,1.74,2.92,-71.851,51.684,43.584,1,352
9978,0.964,0.252,0.188,0.83,1.74,3.06,-71.942,53.28,43.642,1,353
10000,0.968,0.248,0.192,-0.07,1.74,3.27,-72.053,52.257,43.452,1,328
10020,0.968,0.252,0.196,0.56,2.16,3.41,-71.753,52.129,43.452,1,373
10041,0.964,0.252,0.196,1.25,2.71,3.06,-71.682,52.129,43.452,0,272
10062,0.976,0.252,0.2,0.35,3.34,2.37,-71.892,52.129,43.452,0,235
10083,0.972,0.248,0.192,5.15,-0.63,2.16,-73.324,57.657,43.452,0,304
10103,0.956,0.244,0.2,-0.97,0.77,2.85,-70.972,46.448,43.391,0,338
10125,0.964,0.244,0.212,-2.37,0.77,2.92,-71.469,49.018,43.456,0,356
10145,0.964,0.244,0.18,1.67,-0.77,2.99,-72.545,53.588,43.521,0,367
10167,0.98,0.24,0.2,2.57,0.14,1.53,-72.324,50.198,43.629,0,375
10187,0.976,0.24,0.184,1.81,1.18,2.23,-72.79,52.528,43.518,0,352
10208,0.98,0.248,0.196,1.18,1.67,3.27,-72.128,51.684,43.518,0,351
10229,0.972,0.252,0.2,1.6,0.77,3.27,-71.691,51.566,43.518,0,349
10250,0.972,0.256,0.196,1.81,0.07,3.2,-71.541,53.56,43.518,0,341
10270,0.964,0.252,0.196,2.43,-0.21,2.57,-72.019,51.23,43.518,0,328
10292,0.968,0.248,0.18,0.97,0.77,2.99,-72.439,54.032,43.666,0,337
10312,0.964,0.248,0.192,0.9,0.97,2.99,-71.983,52.257,43.443,0,341
10333,0.968,0.244,0.176,0.63,1.74,3.06,-72.74,54.201,43.427,0,346
10354,0.964,0.252,0.196,-0.7,2.09,2.85,-71.682,52.129,43.447,0,350
10375,0.968,0.256,0.188,-0.42,1.39,3.41,-71.84,53.711,43.504,0,329
10396,0.968,0.256,0.2,-0.97,1.39,2.99,-71.559,51.013,43.472,0,315
10417,0.972,0.244,0.188,-1.18,1.46,2.71,-71.823,52.129,43.472,0,313
10437,0.972,0.252,0.188,-1.74,2.23,2.85,-71.823,52.129,43.472,0,307
10459,0.972,0.252,0.204,-1.18,2.57,2.57,-71.559,51.013,43.472,0,304
10479,0.968,0.24,0.196,-0.9,2.3,2.92,-72.255,50.766,43.451,0,330
10500,0.964,0.244,0.196,0.28,1.88,2.57,-72.019,51.23,43.452,0,345
10521,0.964,0.244,0.192,0.42,1.53,2.57,-72.153,51.805,43.428,0,352
10542,0.964,0.244,0.196,0.9,1.39,2.85,-72.019,51.23,43.517,0,361
10563,0.972,0.248,0.2,1.25,1.39,2.78,-71.857,51.119,43.449,0,340
10584,0.976,0.252,0.196,1.32,0.97,2.37,-72.022,52.7,43.416,0,329
10604,0.972,0.252,0.192,1.39,0.77,2.43,-71.753,52.129,43.416,0,313
10626,0.972,0.252,0.192,0.97,0.7,2.5,-72.15,53.28,43.416,0,306
10646,0.972,0.248,0.192,0.83,0.83,2.64,-72.122,52.257,43.416,0,301
10667,0.964,0.248,0.188,0.83,0.56,2.57,-72.114,52.839,43.416,0,420
10688,0.968,0.244,0.192,1.39,1.32,2.57,-72.222,51.805,43.488,0,274
10708,0.972,0.244,0.196,0.49,1.11,2.71,-72.157,51.23,43.475,0,310
10729,0.956,0.236,0.144,5.15,-2.64,2.43,-73.876,58.614,43.324,0,361
10750,0.972,0.252,0.212,-0.7,-0.07,2.64,-72.954,55.261,43.443,0,356
10771,0.976,0.248,0.196,-1.95,0.9,3.41,-72.443,55.689,43.512,0,337
10792,0.964,0.252,0.164,2.64,-0.83,2.71,-71.556,52.993,43.512,0,332
10813,0.988,0.248,0.18,2.3,0.35,1.81,-72.774,54.032,43.512,0,332
10833,0.976,0.252,0.188,2.37,1.74,1.39,-72.15,53.28,43.512,0,335
10855,0.976,0.252,0.192,1.6,2.85,1.81,-72.022,52.7,43.512,0,368
10875,0.972,0.252,0.188,1.88,1.81,2.71,-72.081,53.28,43.604,0,390
10896,0.964,0.252,0.176,1.95,0.83,2.99,-72.32,55.073,43.701,0,397
10917,0.968,0.248,0.184,2.09,0.63,2.78,-72.545,53.588,43.708,0,379
10938,0.964,0.256,0.18,1.46,1.04,2.92,-71.883,52.7,43.633,0,350
10958,0.976,0.252,0.188,2.09,1.46,2.71,-72.104,54.297,43.516,0,315
10980,0.976,0.256,0.192,0.49,2.43,2.78,-71.853,53.134,43.516,0,300
11000,0.972,0.26,0.172,1.18,3.83,1.88,-72.223,56.518,43.516,0,298
11022,0.972,0.26,0.176,1.88,3.34,2.3,-72.104,55.909,43.516,0,296
11042,0.964,0.248,0.188,1.95,2.5,2.23,-72.114,52.839,43.516,0,318
11063,0.96,0.252,0.18,1.6,1.81,1.88,-72.126,54.466,43.761,0,337
11084,0.968,0.252,0.188,1.81,2.3,2.09,-72.012,53.28,43.684,0,349
11105,0.968,0.252,0.172,1.18,2.92,2.3,-72.139,53.869,43.863,0,353
11125,0.968,0.248,0.188,1.39,2.92,2.16,-72.208,53.869,43.752,0,348
11147,0.968,0.252,0.184,1.25,2.57,2.09,-71.769,53.711,43.845,0,320
11167,0.968,0.256,0.188,1.95,2.37,2.16,-71.84,53.711,43.845,0,307
11189,0.972,0.256,0.184,2.5,2.64,2.5,-72.035,54.297,43.845,0,305
11209,0.976,0.256,0.192,2.5,2.57,2.43,-71.853,53.134,43.845,0,300
11230,0.964,0.256,0.188,2.16,2.43,2.37,-71.769,53.711,43.845,0,317
11251,0.96,0.252,0.188,1.95,1.74,2.02,-71.872,53.28,43.798,0,341
11272,0.964,0.256,0.18,1.53,1.39,2.5,-71.95,54.892,43.922,0,346
11292,0.96,0.26,0.188,1.11,0.56,2.64,-71.879,54.892,43.837,0,366
11314,0.96,0.26,0.188,0.35,-0.35,3.62,-71.556,52.993,44.012,0,359
11334,0.98,0.264,0.196,0.21,-0.35,4.52,-71.458,53.413,43.774,0,323
11355,0.972,0.264,0.184,-0.35,0.83,4.66,-71.687,55.129,43.774,0,312
11376,0.968,0.26,0.184,-0.35,0.9,3.69,-71.791,54.717,43.774,0,368
11397,0.968,0.252,0.18,0,1.18,3.27,-72.265,54.466,43.774,0,296
11417,0.972,0.256,0.204,-1.6,1.18,4.1,-71.393,51.453,43.774,0,213
11439,0.96,0.236,0.148,5.63,-1.95,3.13,-73.824,57.912,43.838,0,332
11459,0.956,0.26,0.196,-0.9,0.28,3.2,-72.524,55.073,43.728,0,350
11481,0.976,0.252,0.192,-3.83,3.06,2.92,-72.347,52.984,43.739,0,361
11501,0.956,0.244,0.152,0.77,0.63,3.97,-72.056,54.466,43.916,0,367
11522,0.984,0.248,0.18,3.62,0.63,2.85,-72.708,54.032,43.564,0,343
11543,0.976,0.256,0.184,2.37,1.39,2.5,-72.104,54.297,43.564,0,332
11564,0.98,0.256,0.188,2.64,2.37,2.16,-72.048,53.711,43.564,0,340
11584,0.976,0.26,0.184,1.81,2.92,2.71,-71.931,54.717,43.564,0,345
11606,0.976,0.256,0.18,2.71,2.09,2.99,-72.227,54.892,43.564,0,349
11626,0.968,0.252,0.18,1.25,1.74,2.99,-72.126,54.466,43.69,0,367
11646,0.96,0.248,0.172,1.32,1.46,2.37,-72.139,53.869,43.84,0,357
11668,0.968,0.252,0.18,-0.07,2.3,2.99,-71.84,53.711,43.668,0,345
11688,0.964,0.248,0.164,0.83,2.71,2.85,-72.864,56.528,43.883,0,345
11710,0.972,0.264,0.192,0.7,2.99,3.13,-71.441,53.977,43.81,0,318
11730,0.972,0.256,0.168,0.63,3.69,3.06,-72.52,56.729,43.81,0,308
11751,0.976,0.252,0.192,1.81,2.64,3.13,-72.022,52.7,43.81,0,303
11772,0.968,0.256,0.188,-0.14,2.92,3.41,-71.84,53.711,43.81,0,299
11793,0.976,0.256,0.184,-0.35,2.3,3.48,-72.439,54.032,43.81,0,301
11813,0.968,0.256,0.18,-1.81,3.2,3.69,-71.596,54.134,43.827,0,329
11835,0.964,0.256,0.188,-2.3,3.06,3.76,-72.183,52.839,43.712,0,342
11855,0.976,0.244,0.188,-2.16,2.92,3.83,-72.49,52.39,43.624,0,345
11877,0.968,0.248,0.18,-1.11,3.13,3.06,-72.439,54.032,43.829,0,349
11897,0.968,0.248,0.188,-0.9,3.13,3.13,-72.183,52.839,43.726,0,322
11918,0.968,0.252,0.188,-0.9,2.37,3.41,-72.012,53.28,43.726,0,310
11939,0.972,0.256,0.192,-0.83,2.37,4.03,-71.783,53.134,43.726,0,300
11960,0.968,0.252,0.196,-0.63,2.02,3.83,-71.753,52.129,43.726,0,297
11980,0.968,0.26,0.188,-0.49,1.46,3.83,-71.584,52.565,43.726,0,297
12002,0.968,0.252,0.192,-0.49,1.32,3.9,-71.966,54.297,43.71,0,329
12022,0.964,0.248,0.192,-0.14,0.97,4.03,-71.682,52.129,43.92,0,337
12044,0.96,0.248,0.192,0.56,0.35,2.71,-71.913,52.257,43.726,0,365
12064,0.972,0.244,0.2,0.07,1.6,3.83,-72.023,50.663,43.556,0,356
12085,0.972,0.248,0.196,-0.56,1.67,3.69,-71.99,51.684,43.43,0,332
12106,0.972,0.252,0.192,-0.28,1.95,3.69,-71.953,52.7,43.41,0,316
12127,0.968,0.252,0.196,-0.28,1.53,3.27,-71.753,52.129,43.41,0,349
12147,0.976,0.252,0.204,0.56,2.09,2.64,-72.065,51.119,43.41,0,346
12169,0.984,0.248,0.208,-2.23,2.78,3.69,-71.207,49.848,43.41,0,197
12189,0.972,0.244,0.196,5.84,0.63,2.16,-73.834,57.22,43.41,0,324
12210,0.964,0.248,0.204,-1.46,2.3,3.06,-71.582,50.564,43.499,0,345
12231,0.968,0.24,0.204,-4.03,3.76,2.43,-71.981,49.639,43.635,0,358
12252,0.956,0.248,0.176,0.49,1.25,3.76,-72.359,54.642,43.437,0,374
12273,0.976,0.252,0.204,2.71,1.18,2.78,-71.629,51.013,43.58,0,365
12294,0.976,0.24,0.184,1.6,1.46,1.67,-72.79,52.528,43.345,0,348
12314,0.968,0.248,0.196,1.18,2.09,2.23,-71.857,51.119,43.345,0,350
12336,0.964,0.256,0.192,1.32,1.6,2.71,-71.642,53.134,43.345,0,356
12356,0.972,0.256,0.192,0.9,1.11,3.13,-71.783,53.134,43.345,0,357
12377,0.964,0.244,0.18,1.11,0.83,3.06,-72.545,53.588,43.345,0,371
12398,0.964,0.244,0.184,0.42,0.83,2.57,-72.416,52.984,43.479,0,356
12419,0.968,0.244,0.196,-0.7,0.97,2.85,-72.088,51.23,43.482,0,341
12439,0.968,0.244,0.192,0.21,1.81,2.85,-72.222,51.805,43.463,0,340
12461,0.976,0.252,0.208,0.63,1.74,2.78,-71.495,50.468,43.492,0,334
12481,0.98,0.252,0.164,0.35,2.43,2.37,-72.949,56.948,43.585,0,311
12503,0.976,0.248,0.204,1.04,1.81,2.3,-72.526,50.766,43.585,0,304
12523,0.972,0.244,0.184,0.35,1.81,2.43,-71.753,52.129,43.585,0,300
12544,0.968,0.256,0.188,-0.7,2.16,2.71,-71.753,52.129,43.585,0,298
12565,0.952,0.248,0.188,-0.9,2.3,2.99,-71.903,52.839,43.585,0,318
12585,0.96,0.24,0.192,-1.39,1.53,2.78,-72.253,51.344,43.521,0,334
12606,0.96,0.244,0.2,-0.97,1.46,3.06,-71.813,50.663,43.607,0,343
12627,0.96,0.248,0.2,-0.49,1.11,3.2,-71.646,51.119,43.573,0,346
12648,0.96,0.248,0.192,-0.35,1.11,3.48,-71.913,52.257,43.912,0,342
12668,0.976,0.252,0.196,-0.21,0.97,3.48,-72.29,51.805,43.566,0,316
12690,0.972,0.252,0.196,-0.56,1.18,3.27,-71.892,52.129,43.566,0,305
12710,0.976,0.256,0.196,-0.21,1.18,3.27,-71.525,52.005,43.566,0,300
12732,0.98,0.248,0.204,-0.07,0.83,3.06,-71.863,50.564,43.566,0,297
12752,0.964,0.244,0.192,-0.21,1.04,3.06,-72.153,51.805,43.566,0,314
12773,0.964,0.24,0.192,0.28,0.77,2.92,-72.322,51.344,43.443,0,344
12794,0.964,0.244,0.192,0.28,0.63,3.13,-72.153,51.805,43.301,0,346
12815,0.968,0.244,0.188,0.21,0.77,3.2,-72.354,52.39,43.55,0,347
12835,0.964,0.244,0.188,-0.28,1.74,2.78,-72.285,52.39,43.398,0,350
12857,0.968,0.248,0.188,0.07,1.46,2.85,-72.354,52.39,43.504,0,467
12877,0.972,0.244,0.196,-0.21,1.53,2.5,-71.261,50.91,43.504,0,211
12898,0.972,0.252,0.208,-0.35,0.56,2.64,-71.927,51.119,43.504,0,283
12919,0.964,0.252,0.16,2.23,-0.83,2.16,-72.8,57.592,43.504,0,301
12940,0.972,0.24,0.196,-2.16,1.95,2.3,-72.324,50.766,43.504,0,320
12960,0.96,0.24,0.192,-1.95,2.71,2.78,-72.253,51.344,43.485,1,349
12982,0.96,0.244,0.192,2.57,-0.07,2.99,-72.083,51.805,43.594,1,370
13002,0.968,0.244,0.196,3.06,0.35,1.67,-72.088,51.23,43.431,1,383
13024,0.972,0.232,0.196,2.78,0.83,1.67,-72.359,51.805,43.483,1,392
13044,0.976,0.248,0.188,2.02,2.02,2.09,-71.654,52.565,43.366,1,378
13065,0.972,0.256,0.196,1.88,1.88,2.5,-71.525,52.005,43.366,1,376
13086,0.972,0.252,0.196,2.09,1.18,2.37,-71.823,52.129,43.366,1,365
13107,0.968,0.256,0.192,2.09,0.97,2.43,-71.713,53.134,43.366,1,337
13127,0.972,0.252,0.196,1.04,0.83,2.71,-71.823,52.129,43.366,1,309
13149,0.968,0.252,0.196,0.83,0.49,2.57,-71.753,52.129,43.402,1,323
13169,0.972,0.244,0.184,2.85,0.07,1.6,-72.552,52.984,43.613,1,328
13190,0.972,0.248,0.216,2.5,0.83,0.97,-72.507,54.032,43.544,1,338
13211,0.968,0.256,0.184,-0.35,-0.07,2.02,-71.771,49.089,43.527,1,346
13232,0.976,0.244,0.2,1.74,-0.56,1.95,-72.392,50.766,43.838,1,322
13253,0.968,0.256,0.192,0.14,-0.28,2.23,-71.713,53.134,43.761,1,309
13274,0.972,0.252,0.184,-0.63,0.77,2.23,-72.208,53.869,43.761,1,300
13294,0.972,0.252,0.192,-0.35,1.53,2.43,-71.953,52.7,43.761,1,298
13316,0.972,0.248,0.2,-0.9,1.6,2.85,-71.857,51.119,43.761,1,293
13336,0.964,0.244,0.192,-0.07,1.04,2.85,-72.153,51.805,43.675,1,327
13357,0.964,0.244,0.188,-0.56,1.46,2.85,-72.285,52.39,43.507,1,337
13378,0.968,0.244,0.184,0,1.25,2.71,-72.114,52.839,43.566,1,342
13399,0.964,0.252,0.196,-0.49,1.46,2.57,-72.591,51.931,43.467,1,349
13419,0.976,0.248,0.188,-0.56,2.09,2.43,-71.91,53.711,43.511,1,329
13441,0.98,0.252,0.188,0,1.6,2.3,-72.218,53.28,43.458,1,313
13461,0.972,0.256,0.192,-0.07,1.39,2.37,-71.783,53.134,43.458,1,317
13481,0.972,0.252,0.192,0,0.9,2.23,-71.953,52.7,43.458,1,303
13503,0.972,0.252,0.188,-0.56,1.53,2.5,-72.081,53.28,43.458,1,299
13523,0.96,0.248,0.184,-1.32,1.88,2.71,-72.174,53.431,43.458,1,328
13545,0.956,0.252,0.184,-0.83,1.39,2.71,-72.146,52.39,43.478,1,443
13565,0.956,0.244,0.184,0.14,1.04,2.16,-71.983,52.257,43.617,1,303
13586,0.964,0.248,0.204,-0.28,0.35,2.57,-71.682,52.129,43.6,1,292
13607,0.972,0.244,0.128,4.03,0.97,1.81,-74.179,62.324,43.479,1,334
13628,0.976,0.252,0.228,-0.28,0.63,2.37,-70.808,47.866,43.626,1,326
13648,0.976,0.256,0.204,-3.13,2.71,2.78,-71.464,51.453,43.626,1,322
13670,0.964,0.256,0.18,1.39,-0.07,3.2,-72.02,54.892,43.626,1,320
13690,0.984,0.252,0.196,3.13,1.11,1.88,-72.03,52.129,43.626,1,320
13711,0.976,0.248,0.176,2.43,2.37,1.39,-72.699,54.642,43.626,1,352
13732,0.968,0.252,0.196,1.95,2.43,2.23,-71.813,52.7,43.67,1,378
13753,0.968,0.252,0.188,0.97,2.85,2.43,-72.139,53.869,43.802,1,392
13774,0.964,0.252,0.184,1.6,1.67,1.88,-72.196,54.466,43.641,1,401
13795,0.968,0.252,0.184,1.67,1.88,2.02,-72.139,53.869,43.789,1,373
13815,0.964,0.26,0.188,0.56,2.23,2.09,-71.596,54.134,43.708,1,324
13837,0.976,0.256,0.184,0.42,2.85,2.43,-72.104,54.297,43.708,1,297
13857,0.968,0.256,0.172,-0.63,3.27,2.5,-72.333,56.108,43.708,1,286
13878,0.972,0.26,0.204,-0.97,4.66,2.57,-71.227,51.886,43.708,1,287
13899,0.964,0.248,0.184,0.28,5.01,3.34,-72.285,52.39,43.708,1,310
13920,0.96,0.244,0.192,0.28,4.03,3.34,-71.478,51.566,43.809,1,329
13940,0.964,0.248,0.2,-0.77,4.24,2.71,-71.883,52.7,43.73,1,339
13962,0.964,0.256,0.2,-1.11,4.45,2.43,-71.382,52.005,43.892,1,344
13982,0.972,0.256,0.192,-1.32,4.66,2.64,-71.783,53.134,43.928,1,341
14004,0.968,0.256,0.204,-0.77,4.24,2.78,-71.322,51.453,43.861,1,314
14024,0.964,0.256,0.204,-0.28,4.03,2.5,-71.25,51.453,43.861,1,308
14045,0.964,0.26,0.204,-0.28,3.9,2.78,-71.083,51.886,43.861,1,299
14066,0.968,0.252,0.204,0,3.69,3.06,-71.285,52.435,43.861,1,298
14087,0.968,0.252,0.208,-0.28,3.06,2.85,-71.144,49.931,43.861,1,316
14107,0.964,0.252,0.208,0.07,2.85,2.37,-71.322,51.453,43.895,1,345
14129,0.96,0.256,0.208,0,2.02,2.43,-71.043,50.91,43.9,1,349
14149,0.964,0.248,0.208,0.14,1.53,2.09,-71.445,50.017,43.791,1,348
14170,0.964,0.248,0.192,-0.56,1.67,2.43,-71.983,52.257,43.893,1,353
14191,0.964,0.256,0.2,-0.56,2.23,2.78,-71.382,52.005,43.708,1,342
14212,0.968,0.252,0.204,-0.21,3.13,2.57,-71.487,51.013,43.708,1,387
14232,0.964,0.252,0.22,-0.28,3.2,2.5,-70.868,48.882,43.708,1,203
14254,0.956,0.252,0.208,0.97,1.74,2.71,-72.083,51.805,43.708,1,325
14274,0.956,0.248,0.152,-0.9,-0.21,3.41,-70.644,48.882,43.708,1,318
14295,0.96,0.24,0.216,-3.69,2.09,2.71,-71.365,50.564,43.71,1,347
14316,0.956,0.252,0.184,-0.49,0.77,3.55,-71.929,53.869,43.974,1,363
14337,0.968,0.248,0.22,2.3,1.11,2.43,-71.1,48.427,44.048,1,370
14357,0.968,0.24,0.188,1.04,2.64,1.74,-72.524,51.931,43.785,1,380
14379,0.976,0.26,0.208,0.07,3.34,3.34,-71.168,51.344,43.914,1,361
14399,0.956,0.256,0.216,0.49,2.37,3.2,-70.696,49.848,43.914,1,357
14419,0.96,0.26,0.208,0.56,0.97,2.99,-71.25,51.453,43.914,1,356
14441,0.964,0.26,0.208,0.7,1.11,2.78,-70.682,50.285,43.914,1,338
14461,0.956,0.256,0.204,0.7,1.53,2.57,-71.208,50.468,43.914,1,322
14482,0.964,0.252,0.208,0.35,1.6,2.64,-71.281,50.468,43.938,1,331
14503,0.964,0.252,0.192,0.63,2.3,2.64,-71.813,52.7,43.806,1,336
14524,0.96,0.26,0.224,-1.25,3.55,2.57,-70.334,49.257,43.869,1,341
14545,0.96,0.244,0.196,-0.28,3.27,2.43,-71.949,51.23,44.041,1,348
14566,0.964,0.256,0.2,1.25,3.41,1.74,-71.382,52.005,44.108,1,320
14586,0.96,0.256,0.22,0,2.78,1.95,-70.633,49.329,44.108,1,312
14608,0.972,0.248,0.228,1.11,2.37,2.5,-70.569,48.818,44.108,1,308
14628,0.964,0.256,0.216,-0.14,2.57,2.43,-70.708,49.329,44.108,1,301
14649,0.968,0.248,0.208,0.56,1.81,2.5,-71.235,49.479,44.108,1,301
14670,0.952,0.252,0.212,1.32,1.04,2.57,-70.924,49.931,44.037,1,330
14691,0.952,0.252,0.208,0.77,0.77,2.92,-71.062,50.468,44.02,1,341
14711,0.952,0.24,0.208,1.18,0.35,3.48,-71.556,49.089,44.051,1,351
14733,0.96,0.244,0.216,1.18,0.28,3.62,-71.256,48.487,43.92,1,354
14753,0.968,0.256,0.216,1.04,0.49,3.48,-70.918,49.848,44.128,1,337
14774,0.968,0.256,0.208,0.77,0.21,3.9,-70.817,50.81,44.135,1,316
14795,0.96,0.256,0.204,-0.14,0.56,3.83,-71.453,52.005,44.135,1,308
14816,0.96,0.252,0.204,0.14,1.95,3.83,-71.883,52.7,44.135,1,301
14836,0.968,0.26,0.216,-0.42,1.88,3.27,-70.756,50.285,44.135,1,390
14858,0.956,0.244,0.212,0.77,1.53,2.71,-71.324,49.018,44.138,1,267
14878,0.956,0.248,0.216,-0.7,0.7,2.85,-71.021,48.949,43.85,1,295
14900,0.948,0.248,0.176,3.2,-1.39,2.71,-72.22,54.642,44.125,1,354
14920,0.964,0.244,0.232,0,-1.67,3.06,-70.753,46.448,44.034,1,366
14941,0.964,0.256,0.204,-2.85,-0.49,3.34,-71.25,51.453,43.88,0,346
14962,0.968,0.256,0.188,2.23,-2.02,3.69,-71.487,51.013,43.85,0,333
14983,0.98,0.248,0.224,3.41,-0.28,2.43,-72.361,51.23,43.85,0,327
15003,0.98,0.248,0.192,1.32,0.77,2.92,-71.289,49.931,43.85,0,328
15025,0.972,0.256,0.204,1.81,0.28,3.27,-71.393,51.453,43.85,0,330
15045,0.96,0.252,0.204,2.57,-0.77,3.13,-71.344,51.013,43.85,0,369
15066,0.964,0.252,0.196,3.06,-1.18,2.78,-71.682,52.129,43.747,0,378
15087,0.956,0.244,0.196,2.16,-1.11,2.71,-71.878,51.23,43.984,0,369
15108,0.956,0.248,0.2,1.6,-1.04,3.2,-71.574,51.119,43.802,0,354
15128,0.972,0.256,0.204,1.46,-0.77,3.13,-71.691,51.566,43.598,0,328
15150,0.976,0.252,0.188,1.53,0,3.27,-71.485,52.993,43.561,0,307
15170,0.968,0.26,0.22,0.35,0.77,2.92,-71.665,52.005,43.561,0,297
15191,0.972,0.256,0.196,0.63,0.9,2.99,-71.654,52.565,43.561,0,297
15212,0.972,0.256,0.204,0.77,-0.14,3.27,-71.393,51.453,43.561,0,296
15233,0.956,0.248,0.196,0.56,-0.42,2.37,-71.709,51.684,43.561,0,323
15254,0.968,0.252,0.188,0.35,0.21,2.71,-72.012,53.28,43.884,0,336
15275,0.968,0.252,0.184,-0.35,0.9,2.5,-72.139,53.869,43.816,0,341
15295,0.96,0.248,0.188,-0.14,0.42,2.43,-72.044,52.839,44.016,0,350
15316,0.96,0.248,0.192,1.18,-0.14,2.71,-71.753,52.129,43.745,0,337
15337,0.972,0.252,0.2,1.74,-0.21,2.64,-71.261,50.91,43.794,0,315
15357,0.976,0.256,0.2,1.39,0.42,3.2,-71.831,51.566,43.794,0,302
15379,0.976,0.252,0.204,1.46,0.49,2.78,-71.629,51.013,43.794,0,311
15399,0.972,0.256,0.2,1.46,0.14,2.23,-71.525,52.005,43.794,0,304
15420,0.972,0.256,0.196,1.88,0.42,2.3,-71.654,52.565,43.794,0,315
15441,0.964,0.252,0.184,1.18,0.21,2.16,-72.07,53.869,43.609,0,337
15462,0.968,0.248,0.188,0.63,0.28,2.23,-72.183,52.839,43.591,0,351
15483,0.96,0.252,0.192,1.18,0.21,2.37,-71.913,52.257,43.899,0,460
15504,0.964,0.252,0.192,-0.07,0.63,2.99,-70.988,52.31,43.527,0,245
15524,0.972,0.256,0.2,2.57,-0.97,2.71,-72.212,55.496,43.856,0,341
15546,0.964,0.26,0.188,0.56,-1.74,3.41,-71.596,54.134,43.856,0,319
15566,0.98,0.248,0.18,-1.95,0.14,2.02,-72.641,54.032,43.856,0,316
15587,0.96,0.26,0.168,-0.9,0.7,3.27,-72.133,57.136,43.856,0,321
15608,0.976,0.256,0.184,2.85,-0.63,2.92,-72.104,54.297,43.856,0,333
15629,0.976,0.244,0.168,3.62,0.14,1.53,-73.121,55.456,43.717,0,362
15649,0.968,0.248,0.184,2.5,1.81,1.46,-72.139,53.869,43.759,0,381
15671,0.976,0.256,0.176,2.3,2.23,2.02,-71.738,54.134,43.953,0,398
15691,0.968,0.256,0.18,2.02,1.74,2.5,-71.878,55.717,43.818,0,409
15713,0.964,0.264,0.18,2.57,0.35,1.95,-71.667,55.717,43.82,0,372
15733,0.968,0.26,0.18,2.71,0.42,2.09,-71.914,55.309,43.82,0,342
15754,0.976,0.256,0.18,1.11,0.77,2.57,-72.227,54.892,43.82,0,310
15775,0.98,0.256,0.184,0.83,0.97,2.78,-72.172,54.297,43.82,0,299
15796,0.98,0.268,0.18,-0.42,1.53,2.99,-71.772,56.117,43.82,0,303
15816,0.968,0.264,0.172,0.28,2.5,1.95,-71.975,56.919,43.994,0,327
15838,0.964,0.256,0.168,0.83,1.46,2.57,-71.813,52.7,43.883,0,342
15858,0.968,0.252,0.184,1.46,1.32,2.57,-72.139,53.869,43.81,0,347
15879,0.96,0.256,0.18,1.04,1.39,2.37,-72.264,56.108,43.99,0,353
15900,0.972,0.26,0.184,0.35,1.81,2.64,-71.861,54.717,43.98,0,325
15921,0.972,0.26,0.188,0.9,1.95,3.2,-71.738,54.134,43.98,0,314
15942,0.972,0.256,0.188,0.21,1.81,3.41,-71.91,53.711,43.98,0,307
15963,0.972,0.256,0.188,0.83,1.6,3.34,-71.91,53.711,43.98,0,301
15983,0.976,0.26,0.18,0.77,1.25,3.13,-72.053,55.309,43.98,0,306
16005,0.964,0.256,0.18,0.7,1.25,3.27,-72.143,55.496,43.98,0,333
16025,0.968,0.256,0.176,1.11,1.18,2.92,-72.208,53.869,43.757,0,350
16046,0.968,0.256,0.176,0.9,0.83,2.85,-71.824,55.909,44.023,0,356
16067,0.968,0.26,0.176,0.83,-0.14,2.37,-72.035,55.909,43.914,0,368
16088,0.976,0.26,0.188,0.14,0.77,3.55,-71.808,54.134,44.066,0,332
16108,0.972,0.26,0.176,0.56,0.07,3.83,-72.104,55.909,44.013,0,321
16130,0.972,0.26,0.176,-0.42,0.35,3.2,-72.104,55.909,44.013,0,312
16150,0.976,0.264,0.18,0.77,0.21,2.85,-71.878,55.717,44.013,0,437
16171,0.98,0.264,0.18,0.07,0.97,3.2,-71.947,55.717,44.013,0,227
16192,0.964,0.26,0.184,0,-0.35,2.99,-72.319,57.762,43.91,0,310
16212,0.96,0.244,0.128,3.69,-2.43,2.92,-72.477,59.041,43.624,0,345
16233,0.972,0.26,0.192,-2.23,0.63,2.64,-72.949,56.948,43.848,0,362
16254,0.96,0.248,0.168,-2.16,1.88,3.34,-72.676,55.89,43.87,0,371
16275,0.972,0.26,0.18,2.3,-0.42,4.31,-71.984,55.309,43.801,0,351
16296,0.984,0.252,0.172,2.99,-0.63,2.71,-72.779,55.689,43.91,0,341
16317,0.964,0.26,0.18,2.43,-0.21,1.74,-71.844,55.309,43.91,0,344
16337,0.984,0.264,0.176,2.16,2.02,2.02,-72.134,56.314,43.91,0,348
16359,0.976,0.268,0.176,1.67,1.95,3.06,-71.996,56.314,43.91,0,359
16379,0.972,0.26,0.176,1.95,0.63,2.5,-72.319,57.762,43.91,0,386
16400,0.964,0.26,0.16,1.67,0.56,2.09,-72.613,59.041,43.706,0,376
16421,0.976,0.256,0.164,0.7,1.11,2.5,-72.703,57.36,43.894,0,353
16442,0.972,0.252,0.172,0.49,0.97,2.99,-72.579,55.689,43.918,0,345
16462,0.976,0.256,0.164,1.25,1.88,3.2,-72.703,57.36,43.795,0,322
16484,0.98,0.268,0.192,0.97,2.71,2.71,-71.412,54.386,43.777,0,305
16504,0.964,0.264,0.152,0.49,2.02,2.64,-72.468,60.073,43.777,0,299
16526,0.98,0.252,0.176,2.5,1.95,2.57,-72.646,55.689,43.777,0,300
16546,0.972,0.26,0.164,1.88,1.81,2.78,-72.401,56.108,43.777,0,298
16567,0.968,0.252,0.164,2.57,2.02,2.02,-72.035,55.909,43.777,0,325
16588,0.976,0.26,0.176,1.95,3.13,2.5,-72.173,55.909,43.813,0,336
16609,0.976,0.256,0.18,0.77,3.41,2.57,-72.227,54.892,43.892,0,345
16629,0.976,0.26,0.188,0.7,3.41,2.3,-71.808,54.134,43.889,0,349
16651,0.976,0.268,0.176,1.32,2.57,2.71,-71.819,56.711,43.895,0,337
16671,0.972,0.264,0.172,1.67,1.95,2.92,-72.044,56.919,44.143,0,319
16693,0.964,0.26,0.16,1.95,1.81,3.2,-72.433,58.397,44.143,0,307
16713,0.972,0.26,0.168,0.9,2.16,3.2,-72.113,56.919,44.143,0,303
16734,0.972,0.26,0.172,1.04,2.02,3.13,-71.546,55.129,44.143,0,302
16755,0.964,0.264,0.172,1.04,1.46,2.64,-72.333,56.108,44.143,0,325
16776,0.968,0.252,0.172,-0.35,2.64,2.92,-72.511,55.689,44.146,0,339
16796,0.964,0.256,0.172,0.28,1.67,2.78,-72.264,56.108,43.916,0,360
16818,0.976,0.256,0.168,-0.49,2.37,3.27,-72.587,56.729,43.961,0,357
16838,0.972,0.252,0.164,-0.56,2.78,3.41,-72.817,56.948,44.047,0,347
16859,0.968,0.256,0.168,-1.04,3.48,3.62,-72.452,56.729,44.083,0,321
16880,0.964,0.26,0.168,-0.7,3.13,3.62,-72.389,55.073,44.083,0,410
16901,0.976,0.256,0.188,-0.14,2.92,3.83,-71.725,52.565,44.083,0,289
16922,0.976,0.26,0.204,-2.09,2.43,4.31,-71.683,53.56,44.083,0,233
16943,0.96,0.248,0.14,2.99,0.63,3.41,-73.482,60.559,44.083,0,322
16963,0.972,0.248,0.192,-3.13,2.57,3.41,-72.122,52.257,43.941,0,349
16985,0.964,0.248,0.176,-2.16,2.92,3.48,-72.497,54.642,43.799,0,365
17005,0.968,0.256,0.168,1.88,0.42,3.83,-72.452,56.729,44.043,0,374
17026,0.98,0.256,0.184,2.37,2.16,2.43,-72.172,54.297,43.723,0,376
17047,0.98,0.256,0.176,1.18,3.13,2.09,-72.048,53.711,43.933,0,359
17068,0.98,0.256,0.196,1.53,3.13,2.37,-71.244,53.413,43.933,0,360
17089,0.972,0.264,0.188,0.07,2.57,2.85,-71.612,53.56,43.933,0,364
17110,0.968,0.264,0.176,1.11,1.81,2.09,-71.857,56.314,43.933,0,363
17130,0.964,0.252,0.176,0.49,1.74,2.02,-72.32,55.073,43.933,0,352
17152,0.964,0.248,0.184,0.28,1.81,1.88,-72.243,53.431,43.987,0,344
17172,0.964,0.256,0.188,-0.21,1.39,2.5,-71.769,53.711,43.96,0,334
17192,0.972,0.256,0.176,0.49,2.16,1.95,-72.281,55.496,43.94,0,335
17214,0.968,0.256,0.192,0.07,1.88,2.02,-71.713,53.134,43.795,0,336
17234,0.972,0.26,0.164,0.42,1.81,2.43,-71.844,55.309,43.898,0,313
17255,0.968,0.26,0.188,1.46,1.11,2.5,-72.104,54.297,43.898,0,306
17276,0.968,0.26,0.172,0.42,0.77,2.64,-72.09,54.892,43.898,0,302
17297,0.976,0.26,0.18,0.35,0.83,2.92,-72.053,55.309,43.898,0,298
17318,0.968,0.26,0.176,0.07,1.53,2.99,-72.035,55.909,43.898,0,301
17339,0.964,0.26,0.176,-0.21,1.74,3.06,-71.965,55.909,44.129,0,328
17359,0.968,0.256,0.184,0.28,1.18,2.64,-71.966,54.297,44.036,0,338
17381,0.964,0.256,0.176,0.77,0.9,2.23,-72.143,55.496,43.983,0,345
17401,0.964,0.26,0.184,0.56,0.97,2.23,-72.035,55.909,44.056,0,348
17422,0.972,0.26,0.184,0.83,1.04,2.64,-71.687,55.129,44.01,0,322
17443,0.972,0.26,0.18,0,0.49,2.71,-71.808,55.717,44.01,0,312
17464,0.98,0.26,0.192,0.49,-0.07,2.43,-71.752,53.56,44.01,0,306
17484,0.98,0.264,0.176,0.49,-0.97,2.43,-72.065,56.314,44.01,0,301
17506,0.98,0.264,0.196,0.9,-1.74,2.57,-71.458,53.413,44.01,0,313
17526,0.976,0.256,0.196,-0.07,-1.53,2.57,-71.725,52.565,44.02,0,335
17547,0.968,0.256,0.184,0.07,-1.11,2.43,-71.966,54.297,44.1,0,341
17568,0.972,0.252,0.172,-0.7,0.35,2.43,-72.579,55.689,43.878,0,345
17589,0.968,0.252,0.176,-0.7,0.42,2.57,-72.565,54.642,43.903,0,444
17610,0.968,0.256,0.184,-0.07,-0.14,2.64,-71.541,53.56,44.017,0,305
17631,0.976,0.264,0.196,-0.21,-0.63,2.78,-71.878,55.717,44.004,0,239
17651,0.968,0.256,0.124,3.83,-0.77,2.5,-73.63,64.16,44.004,1,309
17673,0.976,0.256,0.204,-0.63,-0.14,2.71,-71.464,51.453,44.004,1,313
17693,0.972,0.26,0.176,-2.71,1.39,2.85,-72.104,55.909,44.004,1,319
17714,0.968,0.26,0.152,0.97,-0.63,2.99,-72.723,59.693,44.004,1,348
17735,0.984,0.252,0.18,2.5,0.28,1.53,-72.536,54.466,43.827,1,367
17756,0.98,0.256,0.152,1.39,1.74,1.25,-72.349,55.496,43.812,1,380
17776,0.972,0.256,0.184,0,2.3,2.23,-71.975,56.919,43.915,1,398
17798,0.972,0.264,0.172,1.18,1.88,2.5,-72.065,56.314,43.855,1,390
17818,0.972,0.264,0.168,1.25,0.9,2.64,-72.16,57.533,43.945,1,372
17840,0.976,0.256,0.164,1.53,1.11,2.5,-72.703,57.36,43.945,1,350
17860,0.976,0.26,0.172,0.28,1.32,2.37,-72.291,56.518,43.945,1,314
17881,0.976,0.264,0.172,-1.25,1.88,2.85,-72.113,56.919,43.945,1,295
17902,0.972,0.26,0.172,-0.42,1.6,2.5,-72.223,56.518,43.945,1,312
17923,0.972,0.268,0.188,-2.3,1.46,2.92,-71.146,53.824,44.07,1,332
17943,0.968,0.264,0.164,-1.53,1.74,2.99,-72.452,56.729,44.063,1,341
17965,0.968,0.26,0.188,-0.63,0.56,3.13,-72.104,54.297,43.93,1,345
17985,0.976,0.264,0.172,-1.25,0.63,2.64,-72.113,56.919,43.878,1,334
18007,0.98,0.264,0.172,-1.32,1.11,2.64,-72.182,56.919,43.878,1,315
18027,0.984,0.264,0.168,-1.46,2.09,2.3,-72.364,57.533,43.878,1,306
18048,0.972,0.26,0.172,-1.32,2.64,2.43,-72.223,56.518,43.878,1,300
18069,0.976,0.256,0.18,0.35,1.95,1.88,-72.227,54.892,43.878,1,296
18089,0.968,0.256,0.168,0.35,1.53,1.32,-72.452,56.729,43.878,1,320
18110,0.968,0.252,0.164,0.56,2.02,1.39,-72.75,56.948,43.918,1,337
18131,0.968,0.256,0.164,0.14,2.37,1.18,-72.272,57.136,43.987,1,344
18152,0.964,0.26,0.164,0.63,2.92,1.11,-71.975,56.919,43.98,1,348
18172,0.968,0.268,0.18,-0.14,3.34,0.97,-71.561,56.117,43.987,1,343
18194,0.976,0.26,0.18,0.42,2.71,1.18,-72.053,55.309,43.881,1,318
18214,0.972,0.264,0.18,-0.28,2.37,1.67,-71.808,55.717,43.881,1,322
18236,0.972,0.26,0.18,-0.14,2.09,2.43,-71.984,55.309,43.881,1,305
18256,0.976,0.264,0.176,0.21,2.57,2.64,-71.996,56.314,43.881,1,297
18277,0.968,0.26,0.172,-1.25,2.99,2.78,-72.315,56.729,43.881,1,319
18298,0.964,0.26,0.172,-0.21,2.3,2.71,-72.02,54.892,43.957,1,406
18319,0.964,0.26,0.18,1.18,2.43,2.23,-71.769,53.711,44.066,1,328
18339,0.964,0.264,0.184,1.39,2.02,1.67,-71.546,55.129,44.159,1,274
18361,0.968,0.26,0.14,4.45,0.97,0.97,-73.041,61.704,44.246,1,342
18381,0.976,0.264,0.216,0.28,2.43,1.53,-70.741,50.714,44.056,1,331
18403,0.956,0.268,0.2,-0.83,2.02,2.09,-70.726,53.271,44.056,1,323
18423,0.964,0.272,0.16,3.69,0.56,1.81,-71.879,59.539,44.056,1,321
18444,0.984,0.268,0.192,3.34,2.09,0.28,-72.475,57.136,44.056,1,326
18465,0.972,0.26,0.176,1.53,2.71,1.74,-71.346,56.117,44.056,1,350
18486,0.96,0.268,0.18,1.32,2.16,2.43,-71.716,56.314,44.481,1,375
18506,0.968,0.268,0.176,1.39,1.67,2.16,-71.679,56.711,44.302,1,394
18528,0.956,0.272,0.176,1.6,1.6,2.09,-71.284,57.099,44.441,1,406
18548,0.964,0.264,0.176,1.88,1.6,2.16,-71.787,56.314,44.358,1,385
18569,0.968,0.264,0.184,0.63,1.88,2.43,-71.617,55.129,44.408,1,337
18590,0.96,0.268,0.18,0.42,2.02,2.78,-71.418,56.117,44.408,1,308
18611,0.976,0.268,0.176,1.04,2.43,2.3,-71.819,56.711,44.408,1,297
18632,0.972,0.272,0.18,-1.25,2.85,2.57,-70.755,54.075,44.408,1,295
18653,0.976,0.272,0.18,-0.77,4.1,2.71,-71.679,56.711,44.408,1,305
18673,0.972,0.264,0.172,-0.28,4.94,2.3,-71.808,55.717,44.575,1,329
18695,0.976,0.268,0.184,-2.02,7.3,1.18,-71.583,55.532,44.391,1,341
18715,0.968,0.268,0.192,-1.6,7.23,0.9,-71.198,54.386,44.639,1,349
18736,0.972,0.264,0.196,-0.97,6.26,1.6,-71.316,53.413,44.756,1,351
18757,0.968,0.26,0.196,-1.04,5.15,2.09,-71.414,52.993,44.586,1,325
18778,0.964,0.268,0.188,0.97,2.85,3.13,-71.248,54.955,44.586,1,316
18799,0.96,0.264,0.184,1.95,1.18,2.92,-71.176,54.955,44.586,1,309
18820,0.96,0.272,0.18,0.97,1.11,2.64,-71.218,55.353,44.586,1,308
18840,0.968,0.272,0.188,1.46,1.39,2.57,-71.248,54.955,44.586,1,310
18862,0.96,0.264,0.192,1.25,1.53,2.5,-71.225,53.977,44.628,1,337
18882,0.964,0.26,0.196,1.46,1.25,2.5,-71.342,52.993,44.738,1,358
18903,0.956,0.264,0.196,0.83,1.25,2.37,-71.025,53.413,44.741,1,361
18924,0.956,0.268,0.192,1.25,1.6,2.37,-70.978,54.386,44.778,1,357
18945,0.96,0.272,0.2,0.63,1.81,2.3,-70.629,53.677,44.476,1,329
18965,0.956,0.268,0.192,0.63,2.09,2.37,-70.573,56.126,44.476,1,328
18987,0.96,0.268,0.188,1.18,1.67,2.92,-70.978,54.386,44.476,1,393
19007,0.96,0.268,0.2,1.39,0.97,3.06,-70.704,53.677,44.476,1,229
19028,0.964,0.268,0.192,3.55,0.56,3.13,-71.125,54.386,44.476,1,324
19049,0.952,0.268,0.2,0.35,-0.97,3.41,-70.651,53.271,44.659,1,341
19069,0.968,0.26,0.176,-1.53,0.77,2.85,-72.035,55.909,44.668,1,352
19091,0.944,0.276,0.172,-0.42,-0.7,4.1,-70.996,58.074,44.697,1,361
19111,0.964,0.268,0.2,2.99,-0.83,2.85,-70.874,53.271,44.699,1,371
19132,0.976,0.26,0.176,1.67,1.11,2.23,-72.173,55.909,44.752,1,354
19153,0.964,0.276,0.192,0.63,1.95,3.06,-71.146,55.353,44.803,1,351
19174,0.972,0.268,0.192,1.11,0.56,3.13,-70.975,54.228,44.803,1,349
19194,0.964,0.276,0.192,1.18,-0.28,3.76,-70.723,56.126,44.803,1,354
19216,0.964,0.28,0.192,1.81,-0.63,3.48,-70.604,55.565,44.803,1,346
19236,0.96,0.26,0.184,1.67,-0.97,3.9,-71.65,54.717,44.82,1,352
19258,0.964,0.268,0.172,0.77,-0.49,3.9,-71.725,57.312,44.638,1,345
19278,0.968,0.268,0.18,0.56,0,3.83,-71.561,56.117,44.587,1,342
19299,0.968,0.26,0.164,1.6,0.14,3.2,-72.387,57.762,44.7,1,345
19320,0.968,0.272,0.204,-0.7,1.04,3.55,-71.583,55.532,44.728,1,323
19341,0.98,0.264,0.168,0.49,-0.14,3.97,-71.25,57.479,44.775,0,314
19361,0.964,0.272,0.192,0.63,-0.9,3.48,-71,55.353,44.775,0,303
19383,0.968,0.268,0.18,1.53,-1.04,2.92,-71.561,56.117,44.775,0,302
19403,0.976,0.268,0.18,1.04,0.14,3.34,-71.702,56.117,44.775,0,300
19424,0.964,0.268,0.18,0.7,1.04,3.13,-71.49,56.117,44.775,0,323
19445,0.964,0.268,0.18,0.56,0.7,3.48,-71.49,56.117,44.528,0,334
19466,0.96,0.268,0.176,1.32,0.07,3.41,-71.537,56.711,44.659,0,341
19486,0.96,0.276,0.176,1.95,-0.97,3.06,-71.725,57.312,44.565,0,348
19508,0.972,0.272,0.18,0.97,0.35,3.55,-71.526,56.509,44.635,0,331
19528,0.976,0.268,0.176,1.46,0,3.27,-71.463,54.955,44.641,0,321
19550,0.976,0.272,0.176,1.18,-0.21,3.06,-71.642,57.099,44.641,0,308
19570,0.972,0.272,0.18,0.35,-0.49,3.13,-71.456,56.509,44.641,0,316
19591,0.968,0.272,0.184,0.63,-0.7,3.41,-71.266,55.927,44.641,0,306
19612,0.968,0.264,0.18,1.39,0,3.27,-71.738,55.717,44.641,0,322
19633,0.964,0.264,0.172,0.83,0.07,3.55,-71.905,56.919,44.447,0,339
19653,0.964,0.26,0.168,0.83,0.14,3.34,-72.203,57.136,44.418,0,401
19675,0.96,0.264,0.172,1.25,0,3.06,-71.561,56.117,44.312,0,342
19695,0.964,0.268,0.18,-0.14,0.63,3.34,-71.534,54.955,44.242,0,259
19716,0.976,0.264,0.164,5.57,-2.23,2.37,-72.824,63.099,44.246,0,321
19737,0.976,0.276,0.192,-0.14,-0.42,3.13,-70.997,55.18,44.246,0,324
19758,0.972,0.264,0.192,-2.23,1.11,3.2,-71.441,53.977,44.246,0,321
19778,0.964,0.276,0.148,0.42,-0.35,3.55,-72.008,61.803,44.246,0,321
19800,0.98,0.26,0.184,2.23,-0.28,2.85,-72,54.717,44.246,0,340
19820,0.976,0.256,0.16,1.32,0.56,2.3,-72.818,57.999,44.137,0,365
19842,0.976,0.26,0.164,2.02,1.67,2.92,-72.342,58.155,44.365,0,386
19862,0.972,0.272,0.168,1.39,1.18,3.34,-71.729,58.303,44.292,0,400
19883,0.976,0.268,0.168,1.11,0.42,2.85,-71.797,59.285,44.311,0,399
19904,0.972,0.276,0.156,1.74,0.35,2.71,-71.941,60.529,44.246,0,360
19924,0.972,0.272,0.164,0.9,0.77,2.64,-71.91,58.917,44.246,0,325
19945,0.976,0.264,0.16,0.7,1.04,2.71,-72.454,58.786,44.246,0,302
19966,0.984,0.268,0.176,0.63,1.95,2.71,-71.958,56.711,44.246,0,294
19987,0.976,0.272,0.176,-0.21,2.02,2.99,-71.642,57.099,44.246,0,308
20008,0.972,0.268,0.152,0.7,2.92,2.64,-72.418,60.444,44.43,0,330
20029,0.968,0.268,0.168,0.77,1.32,3.13,-72.154,56.518,44.269,0,343
20049,0.972,0.264,0.172,0.07,1.46,2.64,-72.386,58.786,44.206,0,350
20071,0.976,0.268,0.168,0.14,1.25,2.78,-72.049,57.922,44.348,0,350
20091,0.984,0.268,0.164,-0.14,2.3,2.92,-72.297,58.54,44.54,0,323
20112,0.976,0.268,0.168,-0.07,2.85,3.13,-72.049,57.922,44.54,0,310
20133,0.972,0.268,0.172,-0.49,2.64,2.99,-71.865,57.312,44.54,0,308
20154,0.976,0.264,0.168,0.07,1.81,3.13,-72.229,57.533,44.54,0,300
20175,0.972,0.268,0.168,0.63,1.32,2.99,-71.98,57.922,44.54,0,308
20196,0.968,0.264,0.164,0.21,1.81,3.06,-72.205,58.155,44.308,0,333
20216,0.96,0.268,0.164,0.77,1.53,3.06,-71.975,56.919,44.421,0,342
20238,0.972,0.264,0.168,0.49,1.11,2.71,-72.023,58.54,44.391,0,349
20258,0.96,0.264,0.16,0.07,1.11,2.64,-72.179,58.786,44.361,0,348
20279,0.972,0.276,0.176,0.21,0.77,2.78,-71.393,57.479,43.94,0,339
20300,0.98,0.268,0.172,0.35,0.63,2.78,-72.004,57.312,43.94,0,320
20321,0.98,0.264,0.164,0.49,0.83,2.99,-72.41,58.155,43.94,0,308
20341,0.976,0.272,0.16,0,1.53,3.13,-72.088,59.539,43.94,0,303
20363,0.972,0.272,0.16,-0.21,1.53,2.78,-72.536,60.073,43.94,0,313
20383,0.968,0.26,0.164,1.74,0.9,2.99,-72.272,57.136,44.12,0,438
20404,0.976,0.264,0.172,-0.49,1.53,2.99,-71.75,56.711,44.176,0,244
20425,0.968,0.26,0.14,4.59,-0.21,2.71,-73.041,61.704,44.087,0,366
20446,0.96,0.276,0.168,0.97,-0.49,3.27,-71.403,58.676,44.282,0,359
20467,0.984,0.268,0.156,-3.41,2.43,2.23,-72.514,59.801,44.381,0,343
20488,0.96,0.272,0.144,-0.63,1.39,3.69,-72.23,62.107,44.381,0,336
20508,0.972,0.276,0.172,1.53,-0.21,3.48,-71.506,58.074,44.381,0,331
20530,0.984,0.264,0.16,1.74,0.63,2.16,-72.588,58.786,44.381,0,334
20550,0.976,0.268,0.168,1.46,0.97,2.23,-71.865,57.312,44.381,0,343
20571,0.976,0.264,0.164,0.97,2.23,3.13,-72.311,59.801,44.341,0,386
20592,0.972,0.264,0.168,1.67,1.39,3.69,-71.98,57.922,44.252,0,404
20613,0.964,0.264,0.164,1.67,1.11,2.92,-72.136,58.155,44.216,0,406
20634,0.968,0.26,0.152,1.25,1.53,2.85,-72.723,59.693,44.209,0,383
20655,0.976,0.26,0.16,1.32,1.88,2.64,-72.636,58.397,44.265,0,337
20675,0.972,0.268,0.164,0.28,2.64,3.06,-72.092,58.54,44.301,0,313
20697,0.976,0.268,0.144,-0.07,2.99,2.99,-72.692,61.755,44.301,0,302
20717,0.98,0.28,0.172,-1.81,4.45,2.64,-72.044,61.162,44.301,0,300
20738,0.968,0.268,0.144,-3.83,4.24,4.03,-71.435,58.074,44.301,0,302
20759,0.972,0.26,0.168,-0.97,4.1,4.38,-72.134,59.167,44.282,0,327
20780,0.972,0.26,0.164,-0.9,3.06,4.1,-72.455,57.762,44.229,0,338
20801,0.98,0.264,0.172,-1.11,3.06,3.27,-72.182,56.919,44.037,0,346
20822,0.98,0.268,0.172,-1.53,3.13,3.48,-72.004,57.312,44.011,0,349
20842,0.984,0.264,0.172,-1.81,3.27,4.1,-72.25,56.919,44.08,0,327
20864,0.976,0.264,0.172,-1.25,2.43,3.62,-72.113,56.919,43.991,0,317
20884,0.976,0.264,0.168,-0.7,2.02,3.34,-71.996,56.314,43.991,0,306
20904,0.972,0.268,0.172,-0.56,1.6,3.41,-71.996,56.314,43.991,0,304
20926,0.972,0.26,0.168,-0.97,1.81,3.76,-71.75,56.711,43.991,0,304
20946,0.968,0.256,0.164,-0.63,1.81,3.62,-72.569,57.36,43.991,0,330
20968,0.968,0.264,0.164,-1.74,1.67,3.41,-72.205,58.155,44.12,0,342
20988,0.964,0.26,0.176,-0.63,0.83,2.57,-71.965,55.909,44.067,0,350
21009,0.972,0.256,0.176,-0.83,1.81,3.69,-72.281,55.496,44.076,0,370
21030,0.968,0.26,0.184,-0.07,0.56,3.41,-71.791,54.717,44.229,0,349
21051,0.972,0.26,0.18,-0.56,1.04,3.13,-71.984,55.309,44.186,0,324
21071,0.98,0.264,0.184,-1.04,1.67,3.48,-72.34,57.136,44.186,0,312
21093,0.972,0.26,0.172,-0.49,1.39,3.69,-72.113,56.919,44.186,0,315
21113,0.972,0.264,0.172,-0.28,1.04,3.41,-71.984,55.309,44.186,0,442
21134,0.972,0.256,0.176,-1.11,1.04,3.41,-72.281,55.496,44.186,0,218
21155,0.968,0.26,0.168,2.5,-0.21,2.92,-72.272,57.136,44.04,0,349
21176,0.956,0.264,0.144,-0.42,-1.53,3.27,-72.544,61.394,43.839,0,351
21197,0.976,0.256,0.164,-3.41,0.49,2.37,-72.703,57.36,43.915,0,364
21218,0.972,0.256,0.156,-2.43,1.81,4.31,-72.864,58.647,43.888,0,359
21238,0.968,0.264,0.176,1.46,-1.18,4.66,-72.173,55.909,43.938,0,343
21260,0.984,0.256,0.168,1.11,-1.39,2.92,-72.523,57.762,43.938,0,338
21280,0.976,0.256,0.18,1.18,-0.9,1.95,-72.376,55.909,43.938,0,342
21302,0.984,0.26,0.164,0.83,1.04,2.99,-72.657,57.762,43.938,0,352
21322,0.972,0.26,0.172,1.53,0.28,3.83,-72.223,56.518,43.938,0,378
21343,0.972,0.26,0.164,1.04,0.35,3.48,-72.455,57.762,43.87,0,393
21364,0.976,0.252,0.164,1.11,-0.28,2.57,-72.883,56.948,43.73,0,374
21385,0.976,0.256,0.16,0.77,0.56,2.64,-72.818,57.999,43.486,0,350
21405,0.972,0.26,0.16,-0.83,0.97,3.9,-72.523,57.762,43.79,0,331
21427,0.976,0.256,0.16,1.81,1.11,3.06,-72.879,59.041,43.721,0,302
21447,0.984,0.268,0.184,1.53,2.78,2.23,-72.364,58.54,43.721,0,295
21468,0.972,0.26,0.168,1.11,1.53,2.85,-72.34,57.136,43.721,0,293
21489,0.972,0.26,0.164,2.3,0.77,1.6,-72.455,57.762,43.721,0,294
21510,0.98,0.252,0.16,0.7,1.53,2.85,-73.065,57.592,43.721,0,307
21531,0.98,0.26,0.164,0.42,1.39,2.85,-72.59,57.762,43.793,0,326
21552,0.972,0.264,0.164,-0.7,2.23,3.41,-72.274,58.155,43.813,0,335
21572,0.968,0.256,0.16,-1.11,2.09,3.34,-72.684,57.999,43.692,0,337
21594,0.976,0.256,0.172,-1.18,1.81,3.13,-72.455,57.762,43.866,0,340
21614,0.972,0.264,0.164,-0.77,1.46,3.2,-72.408,57.136,43.701,0,313
21635,0.98,0.26,0.172,-0.35,1.46,3.06,-72.359,56.518,43.701,0,306
21656,0.976,0.264,0.168,-0.28,1.53,3.2,-72.229,57.533,43.701,0,299
21677,0.976,0.256,0.16,0.21,1.53,2.71,-72.818,57.999,43.701,0,298
21698,0.968,0.256,0.16,0.07,1.6,2.64,-72.684,57.999,43.701,0,308
21719,0.968,0.256,0.164,0.49,-0.07,1.6,-72.569,57.36,43.694,0,337
21739,0.976,0.256,0.168,-0.21,1.18,2.37,-72.587,56.729,43.656,0,349
21761,0.976,0.256,0.16,-0.56,0.77,3.41,-72.8,57.592,43.716,0,345
21781,0.964,0.256,0.164,-0.63,1.18,3.27,-72.613,59.041,43.663,0,348
21801,0.972,0.268,0.164,-0.42,1.46,3.9,-72.657,57.762,43.535,0,325
21823,0.984,0.264,0.164,-0.28,1.67,3.27,-72.477,58.155,43.535,0,456
21843,0.976,0.256,0.164,-0.77,1.81,2.78,-72.703,57.36,43.535,0,218
21865,0.98,0.26,0.184,-1.18,0.9,3.34,-72,54.717,43.535,0,271
21885,0.972,0.264,0.128,2.09,-0.83,2.85,-73.209,64.138,43.535,0,312
21906,0.964,0.256,0.168,-2.78,0.9,2.57,-72.384,56.729,43.73,0,346
21927,0.98,0.256,0.164,-2.64,3.55,2.92,-73.567,59.863,43.617,0,363
21948,0.956,0.26,0.148,1.32,1.11,4.03,-72.387,57.762,43.601,0,375
21968,0.976,0.26,0.172,1.88,0.49,3.13,-73.13,57.592,43.848,0,385
21990,0.984,0.252,0.172,1.95,0.35,2.43,-72.779,55.689,43.677,0,371
22010,0.972,0.264,0.16,1.32,0.28,1.53,-72.386,58.786,43.71,0,372
22031,0.984,0.264,0.168,1.67,0.9,2.23,-72.364,57.533,43.71,0,380
22052,0.976,0.26,0.16,1.53,1.18,2.99,-72.636,58.397,43.71,0,374
22073,0.984,0.256,0.156,1.67,1.32,2.64,-73.061,58.647,43.71,0,349
22094,0.972,0.256,0.164,0.77,1.74,2.64,-72.636,57.36,43.71,0,339
22115,0.96,0.256,0.16,0.35,1.04,2.64,-72.703,57.36,43.487,0,328
22135,0.976,0.256,0.164,2.57,2.71,2.71,-73.648,59.177,43.487,0,330
22157,0.972,0.26,0.176,1.95,2.3,2.92,-72.401,56.108,43.625,0,336
22177,0.98,0.26,0.16,0.56,2.3,3.2,-72.703,58.397,43.551,0,320
22198,0.988,0.256,0.168,1.6,1.46,3.2,-72.786,56.729,43.502,0,308
22219,0.988,0.26,0.164,0.83,1.74,3.41,-72.723,57.762,43.502,0,302
22240,0.984,0.264,0.168,0,2.16,2.99,-72.364,57.533,43.502,0,297
22260,0.984,0.264,0.172,-0.63,2.57,2.99,-72.25,56.919,43.502,0,292
22282,0.968,0.256,0.164,-0.42,1.53,2.23,-72.501,57.36,43.502,0,320
22302,0.976,0.252,0.168,0.21,2.09,2.23,-73.128,56.528,43.639,0,333
22324,0.972,0.252,0.164,0.07,1.67,2.85,-72.817,56.948,43.701,0,340
22344,0.972,0.256,0.16,0.21,1.88,2.57,-72.751,57.999,43.507,0,344
22365,0.98,0.256,0.16,0.7,2.16,2.99,-72.884,57.999,43.536,1,334
22386,0.98,0.26,0.172,0.9,2.02,2.71,-72.359,56.518,43.761,1,319
22407,0.98,0.264,0.164,1.46,2.23,2.71,-72.41,58.155,43.761,1,313
22427,0.98,0.26,0.164,0.83,2.3,2.71,-72.59,57.762,43.761,1,308
22449,0.98,0.264,0.168,0.35,2.37,2.43,-72.185,57.922,43.761,1,324
22469,0.972,0.252,0.164,-0.21,2.71,2.57,-72.387,57.762,43.761,1,341
22491,0.968,0.26,0.168,-0.35,2.43,2.3,-72.587,56.729,43.551,1,344
22511,0.972,0.252,0.16,-0.21,2.64,2.5,-72.934,57.592,43.679,1,351
22532,0.968,0.252,0.152,0,2.43,2.16,-73.095,58.907,43.828,1,366
22553,0.976,0.256,0.172,-0.07,2.43,2.5,-72.469,56.108,43.661,1,481
22574,0.98,0.256,0.188,-0.97,1.74,2.64,-72.048,53.711,43.85,1,220
22594,0.976,0.26,0.184,1.18,0.7,2.57,-71.931,54.717,43.85,1,331
22616,0.972,0.26,0.132,-0.63,0.42,2.78,-73.307,63.088,43.85,1,322
22636,0.98,0.252,0.188,-2.09,1.11,2.02,-72.412,53.869,43.85,1,324
22657,0.976,0.248,0.168,-0.49,2.02,2.85,-72.885,59.971,43.85,1,352
22678,0.96,0.256,0.16,4.52,-1.18,2.57,-72.212,55.496,43.772,1,367
22699,0.988,0.248,0.16,5.15,-0.07,1.04,-73.374,57.176,43.859,1,385
22720,0.976,0.248,0.168,4.24,0.42,1.25,-72.943,55.89,43.799,1,402
22740,0.984,0.264,0.172,1.88,1.46,2.09,-72.25,56.919,43.86,1,405
22761,0.968,0.268,0.172,2.16,1.04,2.37,-71.795,57.312,43.732,1,392
22782,0.968,0.272,0.164,2.71,0.56,1.88,-71.84,58.917,43.732,1,376
22803,0.984,0.264,0.16,1.74,1.39,2.16,-72.59,57.762,43.732,1,338
22823,0.972,0.256,0.164,0.56,1.6,2.5,-72.049,57.922,43.732,1,305
22845,0.972,0.264,0.164,0.07,1.95,2.37,-72.455,57.762,43.732,1,309
22865,0.972,0.264,0.168,-0.07,2.09,2.43,-72.16,57.533,43.882,1,324
22887,0.976,0.26,0.156,0.14,3.83,1.67,-72.747,59.041,44.091,1,333
22907,0.968,0.256,0.172,0,2.43,2.43,-72.333,56.108,43.976,1,342
22928,0.976,0.256,0.156,0.7,1.81,2.3,-72.931,58.647,43.817,1,342
22949,0.972,0.264,0.168,-0.83,2.16,2.71,-72.16,57.533,43.82,1,317
22970,0.984,0.264,0.168,-0.97,3.13,2.71,-72.229,57.533,43.82,1,304
22990,0.976,0.26,0.176,-1.11,3.69,2.78,-72.363,54.892,43.82,1,301
23012,0.98,0.256,0.172,-0.9,3.13,2.92,-72.173,55.909,43.82,1,299
23032,0.972,0.26,0.176,-0.7,2.92,3.06,-72.104,55.909,43.82,1,308
23053,0.972,0.256,0.164,-0.42,2.64,2.57,-72.636,57.36,43.954,1,327
23074,0.968,0.26,0.164,0.35,2.3,2.57,-72.387,57.762,43.839,1,338
23095,0.968,0.256,0.172,-0.35,2.64,2.57,-72.333,56.108,44.07,1,345
23116,0.972,0.256,0.176,-0.35,2.3,2.71,-72.281,55.496,43.819,1,346
23137,0.972,0.264,0.176,-0.28,2.02,2.3,-71.927,56.314,43.886,1,332
23157,0.976,0.268,0.172,0.07,1.67,2.3,-71.772,56.117,43.886,1,318
23179,0.976,0.264,0.176,-0.14,2.78,2.5,-72.182,56.919,43.886,1,306
23199,0.976,0.26,0.168,-0.49,3.9,2.85,-72.291,56.518,43.886,1,302
23220,0.964,0.26,0.176,-0.56,3.83,2.64,-71.965,55.909,43.886,1,314
23241,0.964,0.256,0.172,0.07,3.69,2.3,-72.264,56.108,43.845,1,466
23262,0.964,0.26,0.184,1.04,3.2,2.37,-71.721,54.717,44.014,1,240
23283,0.964,0.264,0.192,1.39,1.11,2.5,-71.298,53.977,44.113,1,366
23304,0.972,0.26,0.124,0.7,1.25,2.64,-73.498,64.507,44.057,1,364
23324,0.976,0.26,0.212,0.9,1.95,2.09,-72.401,56.108,44.027,1,341
23346,0.96,0.268,0.18,-0.35,0.97,2.85,-71.769,58.917,44.027,1,336
23366,0.98,0.264,0.16,3.27,0.35,2.64,-72.033,55.129,44.027,1,328
23387,0.988,0.26,0.156,3.83,2.71,1.46,-72.945,59.041,44.027,1,332
23408,0.972,0.264,0.188,1.95,3.27,2.16,-71.565,54.549,44.027,1,341
23429,0.972,0.264,0.176,2.09,3.69,2.43,-71.927,56.314,44.076,1,377
23449,0.964,0.272,0.18,1.46,2.71,2.5,-71.312,56.509,44.189,1,398
23471,0.96,0.264,0.172,1.74,2.23,2.71,-71.835,56.919,44.256,1,398
23491,0.96,0.264,0.176,0.83,2.37,2.64,-72.384,56.729,44.328,1,378
23513,0.972,0.264,0.172,0.07,2.99,2.92,-71.679,56.711,44.126,1,331
23533,0.972,0.264,0.188,0.28,2.43,3.06,-71.636,54.549,44.126,1,308
23554,0.976,0.264,0.164,-0.56,2.57,2.92,-71.409,55.927,44.126,1,301
23575,0.98,0.264,0.18,-1.6,4.24,3.41,-71.947,55.717,44.126,1,297
23596,0.972,0.264,0.184,-0.49,3.55,3.55,-71.687,55.129,44.126,1,302
23616,0.964,0.26,0.184,-1.18,1.67,2.99,-71.721,54.717,44.05,1,330
23638,0.964,0.26,0.184,-0.77,1.46,3.48,-71.721,54.717,44.395,1,344
23658,0.968,0.26,0.176,-0.9,2.3,4.03,-72.035,55.909,44.285,1,351
23680,0.964,0.256,0.176,-1.53,2.3,3.9,-72.143,55.496,44.046,1,354
23700,0.972,0.26,0.18,-0.63,2.43,3.41,-71.738,54.134,44.375,1,327
23720,0.968,0.264,0.188,-1.04,3.13,3.06,-71.513,55.532,44.272,1,311
23742,0.972,0.26,0.196,-0.14,2.02,2.85,-71.485,52.993,44.272,1,311
23762,0.976,0.26,0.188,-0.07,2.5,3.2,-71.808,54.134,44.272,1,304
23783,0.972,0.264,0.192,-0.21,2.16,2.99,-71.441,53.977,44.272,1,302
23804,0.968,0.26,0.188,0.14,2.09,3.13,-71.667,54.134,44.272,1,340
23825,0.96,0.26,0.188,-0.42,1.74,2.92,-71.525,54.134,44.107,1,342
23845,0.96,0.256,0.18,1.04,1.39,2.43,-71.698,53.711,44.209,1,344
23867,0.96,0.252,0.188,2.02,1.32,2.02,-71.942,53.28,44.193,1,349
23887,0.968,0.256,0.184,2.99,1.04,2.02,-71.738,54.134,44.169,1,381
23909,0.968,0.252,0.184,5.5,1.25,1.53,-72.139,53.869,44.252,1,330
23929,0.972,0.26,0.196,5.7,0.9,1.18,-71.485,52.993,44.252,1,209
23950,0.972,0.264,0.176,6.12,1.53,1.25,-71.927,56.314,44.252,1,311
23971,0.96,0.276,0.188,2.09,0.35,2.09,-70.824,55.743,44.252,1,311
23992,0.956,0.26,0.18,1.39,0.49,1.95,-71.702,55.309,44.252,1,339
24012,0.952,0.268,0.172,1.46,0.21,2.5,-71.51,57.312,44.338,1,356
24034,0.972,0.264,0.192,5.08,0.14,1.6,-72.104,54.297,44.331,1,371
24054,0.972,0.26,0.168,2.23,2.16,1.53,-71.975,56.919,44.405,1,380
24075,0.964,0.26,0.176,2.16,3.41,2.5,-71.48,55.927,44.448,1,381
24096,0.972,0.276,0.188,1.74,2.64,2.57,-71.044,55.743,44.53,1,372
24117,0.972,0.272,0.184,1.95,2.09,2.37,-71.338,55.927,44.53,1,362
24138,0.972,0.272,0.18,1.32,2.43,2.16,-71.456,56.509,44.53,1,346
24159,0.972,0.264,0.188,1.88,3.34,1.6,-71.565,54.549,44.53,1,317
24179,0.968,0.26,0.176,0.9,4.38,1.6,-72.035,55.909,44.53,1,323
24201,0.964,0.268,0.18,2.02,4.73,0.83,-72.428,59.425,44.648,1,332
24221,0.964,0.272,0.18,0.28,4.31,0.83,-70.988,52.31,44.548,1,341
24242,0.96,0.264,0.188,0.21,4.31,1.32,-71.546,55.129,44.667,1,345
24263,0.96,0.272,0.192,0.14,2.78,2.3,-70.878,54.786,44.448,1,340
24284,0.96,0.272,0.196,0.63,1.53,1.81,-70.754,54.228,44.534,1,325
24304,0.968,0.272,0.192,0.21,1.04,2.02,-71.025,54.786,44.534,1,314
24326,0.972,0.268,0.196,0.42,0.35,2.64,-71.146,53.824,44.534,1,308
24346,0.964,0.268,0.18,1.39,-0.14,3.06,-71.49,56.117,44.534,1,303
24367,0.964,0.26,0.192,1.88,-0.35,3.13,-71.298,55.532,44.534,1,318
24388,0.964,0.264,0.18,1.39,0.35,3.55,-71.667,55.717,44.776,1,334
24409,0.964,0.26,0.184,0.9,0.14,3.9,-71.35,54.549,44.811,1,342
24430,0.964,0.264,0.18,0.77,-0.28,3.62,-71.667,55.717,44.829,1,354
24451,0.972,0.268,0.172,0.63,0.21,3.34,-71.865,57.312,44.764,1,348
24471,0.968,0.284,0.188,-0.63,0.14,3.2,-70.621,56.501,44.626,1,318
24493,0.968,0.272,0.184,-0.28,0.07,3.34,-71.266,55.927,44.626,1,308
24513,0.968,0.272,0.18,-0.97,0.28,3.41,-71.384,56.509,44.626,1,306
24534,0.964,0.272,0.172,-0.14,0.63,3.62,-71.544,57.697,44.626,1,399
24555,0.968,0.272,0.188,0.49,0.56,3.13,-70.704,55.18,44.626,1,213
24576,0.96,0.272,0.188,0,0.28,2.92,-71.346,56.117,44.583,1,338
24596,0.964,0.264,0.164,-0.56,-0.49,3.41,-71.879,59.539,44.607,1,350
24617,0.964,0.256,0.172,-0.77,0.42,2.64,-72.264,56.108,44.507,1,361
24638,0.944,0.276,0.164,-3.41,0.83,4.24,-71.222,59.285,44.494,0,365
24659,0.972,0.272,0.18,1.39,-1.25,4.03,-71.456,56.509,44.401,0,340
24680,0.98,0.26,0.176,2.16,-0.35,2.64,-72.241,55.909,44.401,0,334
24700,0.976,0.264,0.176,0.83,0.7,3.9,-71.996,56.314,44.401,0,334
24722,0.972,0.276,0.184,1.81,0.77,3.62,-71.09,56.314,44.401,0,341
24742,0.964,0.28,0.176,2.02,-0.35,4.03,-70.87,56.314,44.401,0,351
24763,0.964,0.268,0.172,2.64,-1.39,3.69,-71.537,56.711,44.633,0,370
24784,0.964,0.264,0.176,2.16,-1.39,3.76,-71.787,56.314,44.328,0,357
24805,0.96,0.264,0.172,1.18,-1.6,3.97,-71.835,56.919,44.226,0,341
24825,0.964,0.268,0.168,1.32,-1.11,3.9,-71.84,57.922,44.431,0,337
24847,0.972,0.272,0.16,1.46,-1.04,3.41,-72.019,59.539,44.443,0,308
24867,0.972,0.272,0.176,-0.07,-0.07,3.83,-71.572,57.099,44.443,0,299
24889,0.972,0.268,0.16,0.77,-1.18,4.1,-72.16,57.533,44.443,0,297
24909,0.976,0.268,0.172,-0.49,-0.97,4.03,-72.053,55.309,44.443,0,296
24930,0.972,0.264,0.164,0.14,-1.67,3.69,-72.205,58.155,44.443,0,297
24951,0.972,0.26,0.164,-0.14,-1.32,3.83,-72.455,57.762,44.453,0,326
24972,0.964,0.26,0.168,0.21,-0.42,3.76,-72.203,57.136,44.305,0,337
24992,0.964,0.26,0.16,0.35,-0.21,4.03,-72.433,58.397,44.176,0,342
25014,0.968,0.26,0.164,0.77,-0.83,4.03,-72.387,57.762,44.002,0,344
25034,0.972,0.264,0.16,0.77,-0.35,4.8,-72.386,58.786,44.321,0,325
25056,0.972,0.268,0.164,0.07,-0.07,5.22,-72.092,58.54,44.301,0,312
25076,0.976,0.264,0.168,0.49,-0.21,5.22,-72.182,56.919,44.301,0,320
25097,0.976,0.268,0.176,0.35,-0.14,4.73,-71.826,57.697,44.301,0,312
25118,0.972,0.264,0.168,0.7,-0.56,4.45,-71.889,56.711,44.301,0,305
25139,0.972,0.264,0.156,0.7,-0.9,4.73,-72.496,59.425,44.318,0,333
25159,0.968,0.26,0.164,0.21,-1.04,4.73,-72.387,57.762,43.976,0,350
25181,0.968,0.264,0.156,0.21,-1.53,4.17,-72.428,59.425,43.889,0,462
25201,0.972,0.26,0.156,0.07,-0.56,3.69,-72.68,59.041,43.88,0,241
25223,0.984,0.26,0.164,1.11,-0.9,3.69,-72.657,57.762,43.725,0,344
25243,0.98,0.26,0.116,0.7,-1.74,3.55,-71.835,59.903,43.586,0,332
25264,0.98,0.26,0.172,-1.95,-0.07,2.99,-73.236,59.305,43.586,0,331
25285,0.98,0.26,0.168,-3.2,0.63,3.48,-72.79,59.693,43.586,0,327
25306,0.984,0.26,0.164,1.88,-1.18,3.76,-72.657,57.762,43.586,0,330
25326,0.988,0.24,0.148,2.5,-0.56,2.64,-74.077,58.344,43.586,0,360
25348,0.984,0.244,0.148,1.74,0.14,2.64,-73.832,58.765,43.558,0,384
25368,0.98,0.252,0.152,0.56,0.9,3.83,-73.29,58.907,43.598,0,403
25390,0.98,0.26,0.144,1.39,0.07,4.31,-73.134,61.025,43.525,0,412
25410,0.984,0.26,0.148,2.16,-0.14,4.1,-72.988,59.693,43.717,0,392
25431,0.98,0.256,0.156,2.43,-0.07,3.41,-72.922,59.693,43.73,0,349
25452,0.988,0.256,0.152,1.95,0.21,3.41,-73.343,59.971,43.73,0,319
25473,0.984,0.264,0.144,1.04,1.67,3.41,-73.012,61.394,43.73,0,301
25493,0.984,0.264,0.16,0.49,1.39,3.27,-72.588,58.786,43.73,0,298
25515,0.98,0.256,0.14,0.21,3.06,3.62,-73.425,61.331,43.73,0,324
25535,0.98,0.256,0.148,0.83,1.11,3.62,-73.215,59.971,43.581,0,339
25556,0.98,0.256,0.156,0.56,1.11,3.13,-72.996,58.647,43.438,0,347
25577,0.976,0.256,0.148,0.56,1.04,3.2,-73.15,59.971,43.469,0,356
25597,0.98,0.256,0.152,-0.35,1.95,2.92,-73.343,59.971,43.768,0,345
25619,0.988,0.26,0.148,0.35,2.43,2.64,-73.126,58.647,43.485,0,323
25639,0.98,0.26,0.144,0,2.71,2.5,-73.029,60.355,43.485,0,315
25660,0.98,0.256,0.152,0.9,2.43,2.3,-73.107,59.305,43.485,0,309
25681,0.976,0.26,0.14,0.9,2.16,3.13,-73.172,61.704,43.485,0,304
25702,0.968,0.256,0.144,1.32,1.88,3.06,-73.126,60.647,43.485,0,322
25723,0.984,0.252,0.148,1.25,2.37,2.85,-73.464,59.579,43.649,0,335
25744,0.972,0.256,0.152,0.7,2.16,2.99,-72.975,59.305,43.589,0,342
25764,0.976,0.256,0.148,1.46,1.95,2.64,-73.38,60.26,43.512,0,361
25786,0.976,0.256,0.148,0.42,1.74,3.13,-72.988,59.693,43.538,0,351
25806,0.98,0.256,0.156,0.35,1.74,2.57,-72.636,58.397,43.501,0,323
25827,0.984,0.256,0.152,0.07,2.16,2.78,-73.171,59.305,43.501,0,316
25848,0.984,0.256,0.144,-0.42,2.37,3.13,-73.385,60.647,43.501,0,341
25869,0.98,0.26,0.152,-0.42,2.23,3.13,-72.922,59.693,43.501,0,380
25890,0.98,0.26,0.152,-1.6,1.74,3.62,-72.922,59.693,43.501,0,212
25911,0.976,0.256,0.152,2.23,0.7,2.43,-73.041,59.305,43.618,0,348
25931,0.964,0.264,0.128,-1.18,-0.21,3.2,-72.658,55.073,43.71,0,359
25953,0.988,0.252,0.148,-5.63,2.16,3.34,-73.015,56.948,43.44,0,368
25973,0.964,0.252,0.144,-3.55,1.95,4.17,-72.783,62.067,43.51,0,372
25995,0.996,0.256,0.16,0.63,0.35,3.76,-73.143,57.999,43.53,0,351
26015,0.988,0.252,0.152,1.6,0.63,2.71,-73.418,58.907,43.53,0,348
26036,0.98,0.256,0.164,1.39,1.04,1.88,-72.77,57.36,43.53,0,353
26057,0.992,0.26,0.156,0.77,2.16,2.71,-73.009,59.041,43.53,0,363
26078,0.98,0.26,0.16,0.42,1.74,3.48,-72.703,58.397,43.53,0,378
26098,0.972,0.256,0.152,1.32,0.7,3.69,-72.975,59.305,43.462,0,386
26120,0.984,0.256,0.148,0.63,1.18,3.48,-73.355,58.907,43.587,0,364
26140,0.968,0.252,0.144,0.07,0.14,2.57,-73.585,59.177,43.265,0,345
26161,0.988,0.252,0.136,0.07,2.09,3.27,-73.842,61.65,43.377,0,335
26182,0.984,0.264,0.172,-0.35,1.88,3.34,-72.25,56.919,43.341,0,309
26203,0.984,0.26,0.124,-0.14,3.62,2.71,-73.689,64.507,43.341,0,302
26224,0.992,0.252,0.168,0,2.92,2.92,-73.027,56.314,43.341,0,299
26245,0.988,0.252,0.152,-0.28,2.92,2.78,-73.418,58.907,43.341,0,298
26265,0.984,0.26,0.156,-1.18,3.13,2.85,-72.879,59.041,43.341,0,302
26287,0.976,0.252,0.144,-1.95,3.55,3.06,-73.29,58.907,43.246,0,328
26307,0.98,0.252,0.144,-2.78,3.55,3.34,-73.226,58.907,43.257,0,337
26328,0.976,0.244,0.164,-2.5,2.92,3.62,-73.41,58.5,43.297,0,339
26349,0.976,0.248,0.16,-1.39,2.23,3.55,-73.181,57.176,43.302,0,342
26370,0.988,0.252,0.152,-0.9,1.95,3.2,-73.418,58.907,43.193,0,318
26391,0.976,0.252,0.148,-0.7,1.95,3.34,-73.336,59.579,43.193,0,308
26412,0.98,0.256,0.152,-0.56,1.88,3.13,-73.107,59.305,43.193,0,302
26432,0.984,0.256,0.156,-0.7,1.6,3.27,-73.061,58.647,43.193,0,298
26454,0.972,0.26,0.152,-0.9,-0.07,1.6,-73.095,58.907,43.193,0,294
26474,0.98,0.252,0.16,-1.25,0,2.71,-72.931,58.647,43.273,0,338
26494,0.976,0.252,0.156,-2.23,-0.42,3.41,-73.065,57.592,43.253,0,337
26516,0.976,0.244,0.16,-2.02,0.28,2.92,-73.361,56.75,43.31,0,338
26536,0.98,0.244,0.152,-0.97,0.7,3.2,-73.657,58.083,43.29,0,345
26558,0.984,0.248,0.156,-0.9,1.11,3.2,-73.425,57.833,43.117,0,363
26578,0.98,0.248,0.156,0.14,0.9,2.71,-73.361,57.833,43.121,0,357
26599,0.988,0.252,0.168,-2.02,0.56,3.06,-72.963,56.314,43.121,0,185
26620,0.992,0.252,0.156,3.06,0.21,2.43,-74.269,63.44,43.121,0,301
26641,0.976,0.264,0.14,-1.74,0.35,3.69,-72.897,56.314,43.121,0,308
26661,0.988,0.24,0.16,-3.41,2.16,2.78,-72.897,56.314,43.121,0,341
26683,0.964,0.248,0.132,-0.14,1.18,2.85,-73.758,61.98,43.145,0,357
26703,0.984,0.248,0.156,2.64,0.14,3.48,-73.425,57.833,43.105,0,370
26725,0.984,0.236,0.148,2.09,-0.49,2.64,-74.199,57.912,43.149,0,382
26745,0.988,0.248,0.156,2.16,-0.21,2.37,-73.488,57.833,43.057,0,375
26766,0.984,0.256,0.144,2.5,-0.07,1.74,-73.385,60.647,43.021,0,377
26787,0.996,0.256,0.148,1.46,1.53,3.13,-73.47,59.971,43.021,0,377
26808,0.984,0.252,0.148,1.95,0.63,2.85,-73.614,60.95,43.021,0,361
26828,0.984,0.252,0.136,0.9,1.6,2.92,-73.527,59.579,43.021,0,323
26850,0.984,0.248,0.144,0,1.88,2.99,-73.585,59.177,43.021,0,323
26870,0.98,0.248,0.14,1.18,2.64,2.71,-73.802,60.559,43.173,0,326
26892,0.984,0.256,0.168,1.46,2.57,2.37,-72.72,56.729,43.153,0,332
26912,0.98,0.248,0.124,1.25,3.41,2.3,-74.208,63.44,43.025,0,343
26933,0.98,0.248,0.156,1.04,2.57,2.71,-73.361,57.833,43.121,0,331
26954,0.98,0.252,0.148,1.18,2.09,2.92,-73.4,59.579,43.105,0,316
26975,0.988,0.26,0.16,-0.07,2.23,3.13,-73.19,58.647,43.105,0,310
26995,0.984,0.256,0.156,-0.42,2.64,2.78,-73.418,58.907,43.105,0,304
27017,0.988,0.252,0.156,-0.56,2.57,3.27,-72.996,58.647,43.105,0,301
27037,0.972,0.252,0.156,-0.77,2.23,2.85,-73.048,58.245,43.105,0,320
27059,0.976,0.248,0.152,-0.14,1.95,2.78,-73.41,58.5,43.249,0,333
27079,0.976,0.248,0.152,-0.21,1.88,2.85,-73.41,58.5,43.229,0,340
27100,0.976,0.244,0.152,-0.07,1.67,3.13,-73.594,58.083,43.161,0,345
27121,0.976,0.252,0.156,0.28,1.11,3.2,-73.114,58.245,42.897,0,336
27142,0.984,0.252,0.164,0.21,1.6,3.27,-73.171,59.305,43.137,0,318
27162,0.988,0.256,0.156,0.42,1.46,3.2,-72.95,57.999,43.137,0,307
27184,0.98,0.256,0.16,0.07,0.97,3.41,-72.996,58.647,43.137,0,321
27204,0.98,0.252,0.156,-0.21,0.56,3.34,-73.179,58.245,43.137,0,306
27226,0.976,0.248,0.152,-0.28,0.77,3.34,-73.41,58.5,43.137,0,319
27246,0.98,0.244,0.148,-0.35,1.04,3.34,-73.77,58.765,42.961,0,335
27267,0.98,0.248,0.148,0.21,1.32,3.13,-73.585,59.177,43.029,0,392
27288,0.976,0.24,0.152,0.42,1.39,2.85,-73.777,57.657,43.233,0,404
27309,0.972,0.244,0.164,-1.39,0.63,3.34,-73.177,56.098,43.021,0,221
27329,0.988,0.248,0.164,3.48,0.35,2.5,-74.362,62.324,43.061,0,326
27351,0.976,0.26,0.136,-2.23,0.21,2.37,-72.818,57.999,43.061,0,326
27371,1,0.244,0.156,-2.57,2.43,2.71,-73.321,56.528,43.061,0,324
27393,0.976,0.252,0.144,-0.49,1.95,4.17,-73.444,60.26,43.061,0,327
27413,0.98,0.248,0.168,2.92,0.35,3.13,-73.009,55.89,43.061,0,348
27433,0.988,0.24,0.152,2.16,0.49,2.09,-73.964,57.657,42.953,0,372
27455,0.984,0.24,0.148,2.43,0.97,2.09,-74.016,58.344,43.125,0,394
27475,0.976,0.252,0.148,0.83,2.02,2.85,-73.336,59.579,43.218,1,417
27496,0.976,0.248,0.156,1.46,1.25,2.64,-73.474,58.5,43.169,1,426
27517,0.984,0.252,0.148,1.6,1.39,2.5,-73.236,59.305,43.105,1,386
27538,0.984,0.248,0.148,1.11,1.74,2.43,-73.464,59.579,43.105,1,344
27559,0.98,0.252,0.16,0.42,1.95,2.85,-73.065,57.592,43.105,1,312
27580,0.976,0.252,0.148,1.67,1.88,1.67,-73.336,59.579,43.105,1,297
27600,0.984,0.252,0.168,1.81,2.57,2.71,-72.897,56.314,43.105,1,309
27622,0.98,0.252,0.132,1.95,2.57,2.57,-73.818,62.359,43.109,1,334
27642,0.976,0.24,0.164,2.09,1.67,2.37,-73.42,55.658,43.129,1,348
27663,0.98,0.252,0.152,1.67,1.88,2.37,-73.336,59.579,43.153,1,356
27684,0.984,0.252,0.156,0.14,2.43,2.3,-73.343,59.971,43.157,1,355
27705,0.988,0.256,0.156,-0.56,2.99,2.5,-72.9,58.397,43.209,1,331
27726,0.988,0.248,0.168,-0.14,2.78,2.71,-73.139,55.89,43.209,1,318
27747,0.98,0.248,0.164,-0.35,2.43,2.78,-73.128,56.528,43.209,1,312
27767,0.98,0.248,0.168,-0.35,2.71,2.57,-73.009,55.89,43.209,1,305
27789,0.98,0.252,0.16,-0.28,2.43,2.43,-73.065,57.592,43.209,1,311
27809,0.976,0.244,0.16,0.07,2.02,2.5,-73.361,56.75,43.354,1,337
27830,0.972,0.248,0.156,0.83,1.67,2.37,-73.226,58.907,43.141,1,347
27851,0.976,0.244,0.156,0.07,1.88,2.43,-73.13,57.592,43.185,1,353
27872,0.976,0.248,0.16,-0.07,1.95,2.23,-73.361,57.833,43.065,1,357
27893,0.98,0.256,0.164,0,1.74,2.3,-72.77,57.36,43.214,1,340
27914,0.984,0.252,0.16,0.42,1.6,2.43,-73.13,57.592,43.214,1,328
27934,0.98,0.252,0.164,0.28,1.25,2.5,-72.949,56.948,43.214,1,313
27956,0.98,0.252,0.156,-0.21,1.67,2.64,-73.179,58.245,43.214,1,304
27976,0.984,0.248,0.16,-0.42,1.6,2.64,-73.31,57.176,43.214,1,308
27997,0.976,0.24,0.152,0.14,1.18,2.43,-73.777,57.657,43.294,1,488
28018,0.98,0.244,0.164,0.49,0.9,2.09,-73.361,56.75,43.354,1,251
28039,0.976,0.244,0.164,-0.14,-0.07,2.57,-73.065,57.592,43.315,1,332
28059,0.98,0.244,0.128,2.16,1.67,1.88,-74.254,66.806,43.153,1,356
28081,0.988,0.24,0.188,-0.7,2.09,1.95,-72.857,51.931,43.165,1,340
28101,0.976,0.248,0.156,-1.25,2.85,2.43,-73.296,57.833,43.237,1,334
28123,0.98,0.26,0.148,2.5,1.32,2.85,-73.029,60.355,43.237,1,331
28143,0.996,0.248,0.16,4.03,1.81,1.6,-73.5,57.176,43.237,1,336
28164,0.992,0.252,0.152,2.85,2.71,0.9,-73.482,58.907,43.237,1,343
28185,0.98,0.252,0.164,1.25,3.27,1.6,-73.114,58.245,43.273,1,383
28206,0.972,0.26,0.16,1.74,2.57,2.37,-72.684,57.999,43.201,1,403
28226,0.968,0.256,0.156,2.57,1.6,2.02,-72.798,58.647,43.598,1,408
28248,0.976,0.252,0.152,1.88,1.74,1.67,-73.226,58.907,43.357,1,389
28268,0.98,0.256,0.16,1.11,1.95,1.46,-72.884,57.999,43.543,1,335
28290,0.992,0.26,0.172,0.97,3.2,2.16,-72.56,56.518,43.502,1,304
28310,0.976,0.264,0.168,-0.49,2.37,2.16,-72.229,57.533,43.502,1,295
28331,0.98,0.26,0.164,0,3.55,2.3,-72.59,57.762,43.502,1,292
28352,0.984,0.252,0.164,0.83,3.41,2.85,-72.949,56.948,43.502,1,294
28372,0.972,0.248,0.164,0,2.16,3.13,-72.699,56.314,43.502,1,320
28393,0.98,0.252,0.168,-0.56,2.3,3.55,-72.703,57.36,43.623,1,329
28414,0.98,0.252,0.156,-1.11,2.57,3.48,-73.179,58.245,43.429,1,336
28435,0.976,0.248,0.16,-1.6,3.06,3.69,-73.181,57.176,43.527,1,343
28455,0.98,0.256,0.168,-1.18,2.78,3.55,-72.654,56.729,43.612,1,328
28477,0.984,0.26,0.164,-0.77,2.57,3.69,-72.657,57.762,43.611,1,309
28497,0.98,0.256,0.156,-0.9,2.64,3.48,-72.996,58.647,43.611,1,302
28519,0.98,0.26,0.168,-0.97,2.57,3.41,-72.475,57.136,43.611,1,298
28539,0.98,0.256,0.164,-1.04,2.92,3.2,-72.949,56.948,43.611,1,297
28560,0.972,0.248,0.164,-0.77,2.92,3.2,-72.817,56.948,43.611,1,320
28581,0.968,0.252,0.16,-1.32,2.92,3.2,-72.455,57.762,43.411,1,343
28602,0.968,0.252,0.168,-0.83,1.88,3.06,-72.632,56.314,43.85,1,341
28623,0.964,0.248,0.168,-1.11,2.09,2.64,-72.744,55.89,43.431,1,347
28644,0.976,0.256,0.172,-0.9,2.3,2.78,-72.469,56.108,43.31,1,338
28664,0.98,0.252,0.164,-0.42,2.85,2.78,-72.949,56.948,43.411,1,422
28686,0.976,0.252,0.18,0.28,3.2,2.3,-72.401,54.466,43.411,1,239
28706,0.98,0.252,0.188,-0.14,1.74,2.85,-72.159,54.892,43.411,1,257
28727,0.98,0.248,0.168,2.09,2.64,2.57,-74.014,63.805,43.411,1,300
28748,0.972,0.256,0.164,-0.07,1.6,3.76,-72.348,49.163,43.411,1,330
28769,0.96,0.24,0.176,-3.13,2.02,3.62,-72.781,53.75,43.585,1,349
28789,0.972,0.252,0.148,0.63,1.88,4.1,-73.271,59.579,43.403,1,363
28811,0.98,0.248,0.172,2.5,2.37,3.06,-72.888,55.261,43.379,1,379
28831,0.976,0.248,0.16,0.7,3.2,2.85,-73.181,57.176,43.591,1,381
28853,0.976,0.256,0.18,0.14,3.9,3.62,-72.227,54.892,43.432,1,368
28873,0.972,0.26,0.168,0.35,3.48,3.48,-72.281,55.496,43.432,1,367
28894,0.976,0.264,0.168,-0.21,2.57,3.69,-72.455,57.762,43.432,1,359
28915,0.972,0.252,0.176,0.56,1.95,3.06,-72.632,54.642,43.432,1,338
28936,0.968,0.248,0.176,0,2.02,2.92,-72.565,54.642,43.432,1,321
28956,0.968,0.248,0.168,-0.77,1.81,3.41,-72.811,55.89,43.586,1,328
28978,0.976,0.248,0.16,-1.04,2.43,3.76,-73.181,57.176,43.372,1,332
28998,0.968,0.252,0.192,-0.97,1.53,3.55,-71.883,52.7,43.412,1,339
29020,0.98,0.24,0.164,-0.28,2.57,3.48,-73.484,55.658,43.364,1,341
29040,0.984,0.244,0.18,-0.35,2.43,3.62,-72.879,53.588,43.579,1,317
29061,0.976,0.252,0.184,-0.9,2.43,3.27,-72.515,53.431,43.579,1,310
29082,0.98,0.252,0.176,-1.25,3.2,3.27,-72.641,54.032,43.579,1,306
29103,0.976,0.256,0.184,-1.11,3.34,3.62,-72.401,54.466,43.579,1,299
29123,0.972,0.244,0.176,-0.14,2.78,3.9,-72.807,54.201,43.579,1,313
29145,0.968,0.248,0.184,-0.21,1.67,4.38,-72.312,53.431,43.239,1,330
29165,0.96,0.244,0.176,-0.14,1.6,4.17,-72.605,54.201,43.219,1,341
29187,0.972,0.248,0.172,-0.21,2.3,4.17,-72.756,55.261,43.307,1,349
29207,0.972,0.236,0.18,0.83,1.6,3.9,-73.025,52.671,43.362,1,350
29228,0.976,0.252,0.18,0.07,1.67,3.83,-72.172,54.297,43.476,1,333
29249,0.976,0.256,0.18,1.39,1.18,3.34,-72.159,54.892,43.476,1,318
29270,0.972,0.248,0.184,2.37,0.42,3.27,-72.686,52.984,43.476,1,309
29290,0.98,0.244,0.188,2.85,-0.07,3.13,-72.557,52.39,43.476,1,306
29312,0.972,0.244,0.18,2.71,0.14,3.41,-72.68,53.588,43.476,1,383
29332,0.968,0.24,0.18,3.13,0,3.13,-72.786,53.134,43.381,1,291
29353,0.972,0.244,0.188,2.57,-0.49,3.27,-72.422,52.39,43.162,1,273
29374,0.972,0.244,0.18,3.83,-0.07,3.06,-72.68,53.588,43.126,1,353
29394,0.964,0.248,0.188,0.49,-1.11,3.76,-72.648,49.24,43.061,1,364
29416,0.98,0.244,0.168,-2.16,0.63,3.83,-71.896,54.297,43.255,1,345
29436,0.964,0.252,0.16,-1.04,0.7,4.1,-73.179,58.245,43.255,1,337
29457,0.992,0.24,0.18,2.85,0.49,2.64,-73.179,53.134,43.255,1,335
29478,0.988,0.236,0.172,0.28,2.3,2.43,-73.539,53.919,43.255,1,333
29499,0.988,0.248,0.192,0.28,2.57,2.78,-72.394,52.257,43.255,1,352
29519,0.98,0.244,0.168,-0.21,3.06,3.55,-73.186,55.456,43.259,1,385
29541,0.964,0.248,0.164,-0.49,2.5,3.62,-72.864,56.528,43.146,1,392
29561,0.96,0.236,0.176,0.9,1.04,3.13,-72.956,53.29,43.214,1,379
29583,0.972,0.24,0.18,-1.11,1.25,3.06,-73.298,55.012,43.045,1,361
29603,0.98,0.24,0.184,-0.28,0.83,3.41,-72.426,51.805,43.263,1,327
29624,0.98,0.248,0.184,-0.42,1.74,3.27,-73.31,57.176,43.174,1,308
29645,0.98,0.24,0.184,-1.88,2.02,3.83,-72.856,52.528,43.174,1,302
29666,0.964,0.248,0.164,-0.14,1.25,3.48,-72.864,56.528,43.174,1,301
29686,0.976,0.244,0.18,0.42,0.83,3.2,-72.747,53.588,43.174,1,299
29708,0.976,0.232,0.18,-0.56,1.18,2.99,-73.261,52.197,43.142,1,330
29728,0.976,0.24,0.172,-0.42,1.67,3.41,-73.173,54.376,43.093,1,339
29750,0.972,0.24,0.172,0.42,2.02,3.06,-73.356,55.658,43.013,1,346
29770,0.98,0.228,0.16,0.21,2.99,3.55,-73.155,53.29,42.952,1,350
29791,0.972,0.24,0.172,0.35,2.09,3.06,-72.68,53.588,42.911,1,327
29812,0.984,0.244,0.176,-0.42,2.43,3.2,-73.005,54.201,42.928,1,315
29833,0.992,0.248,0.18,0.56,2.64,3.13,-72.839,54.032,42.928,1,308
29853,0.972,0.248,0.184,-0.14,2.64,2.78,-72.38,53.431,42.928,1,318
29875,0.98,0.24,0.184,0.49,1.88,2.16,-72.856,52.528,42.928,1,306
29895,0.972,0.24,0.176,-0.07,1.18,2.3,-72.981,53.75,42.928,1,329
29917,0.972,0.244,0.176,0.35,0.7,2.37,-73.279,54.558,43.057,0,342
29937,0.968,0.236,0.164,0.56,0.14,3.06,-72.827,52.062,43.166,0,370
29958,0.972,0.236,0.176,0.7,0.56,3.06,-72.786,53.134,42.956,0,398
29979,0.98,0.24,0.188,0.97,0.7,3.55,-72.725,51.931,43.146,0,240
30000,0.976,0.24,0.168,2.02,1.11,3.13,-73.298,55.012,43.101,0,332
30020,0.972,0.244,0.184,-0.83,-0.83,3.9,-72.552,52.984,43.101,0,323
30042,0.98,0.236,0.148,-0.7,0.83,2.85,-74.138,57.912,43.101,0,321
30062,0.964,0.252,0.164,-2.85,1.39,4.24,-72.683,56.948,43.101,0,320
30084,0.98,0.236,0.184,2.5,-0.28,2.78,-73.025,52.062,43.101,0,342
30104,0.984,0.224,0.168,1.11,1.67,2.3,-73.949,53.62,42.907,0,364
30125,0.984,0.232,0.184,0.83,1.6,2.85,-72.557,52.39,42.879,0,377
30146,0.976,0.24,0.172,1.25,1.6,2.99,-73.173,54.376,42.867,0,392
30167,0.976,0.248,0.172,1.11,0.77,3.27,-72.822,55.261,42.984,0,385
30187,0.972,0.244,0.172,1.04,-0.14,3.62,-72.932,54.823,42.807,0,355
30209,0.976,0.24,0.176,1.11,0.07,3.2,-73.047,53.75,42.807,0,319
30229,0.976,0.24,0.176,0.42,-0.28,3.27,-73.047,53.75,42.807,0,301
30249,0.988,0.236,0.176,1.46,0.07,3.06,-73.413,53.29,42.807,0,291
30271,0.976,0.24,0.168,0.7,-0.9,2.99,-72.524,51.931,42.807,0,311
30291,0.976,0.236,0.164,1.04,-0.21,3.06,-73.903,56.539,42.94,0,329
30313,0.976,0.24,0.156,0.56,-0.07,3.55,-73.285,53.29,43.008,0,336
30333,0.972,0.232,0.172,0.21,-0.35,2.85,-73.457,53.451,42.747,0,349
30354,0.984,0.24,0.176,0.42,0.28,2.99,-73.177,53.75,43.057,0,347
30375,0.984,0.248,0.18,-0.14,0.56,3.27,-72.708,54.032,42.823,0,322
30396,0.984,0.24,0.172,0.49,0.77,3.83,-73.302,54.376,42.823,0,314
30416,0.98,0.24,0.176,0.42,0.35,3.62,-73.112,53.75,42.823,0,306
30438,0.98,0.244,0.164,0.63,-0.42,3.13,-73.242,56.098,42.823,0,302
30458,0.98,0.24,0.172,1.18,-0.83,2.85,-73.775,54.094,42.823,0,315
30480,0.984,0.232,0.168,0.77,-0.56,3.34,-73.362,55.012,42.762,0,340
30500,0.98,0.236,0.172,1.81,-1.11,2.78,-73.412,53.919,42.783,0,353
30521,0.984,0.24,0.168,1.32,-0.97,2.5,-73.426,55.012,42.638,0,348
30542,0.976,0.232,0.156,1.25,-1.04,2.71,-74.021,56.087,42.76,0,348
30563,0.98,0.244,0.156,1.25,-0.9,2.71,-73.542,57.412,42.638,0,321
30583,0.98,0.24,0.16,1.25,-0.56,2.5,-73.605,56.314,42.638,0,411
30605,0.98,0.24,0.172,2.23,-0.21,2.09,-73.426,55.012,42.638,0,211
30625,0.984,0.244,0.176,0.83,-0.35,2.5,-73.302,54.376,42.638,0,264
30647,0.984,0.236,0.144,4.24,-1.81,2.16,-74.728,62.286,42.638,0,319
30667,0.984,0.232,0.168,0.42,-0.9,2.78,-73.775,54.094,42.719,0,349
30688,0.976,0.232,0.172,-0.7,-0.14,2.78,-73.522,53.451,42.559,0,363
30709,0.98,0.24,0.148,1.18,-0.7,3.34,-73.954,58.344,42.591,0,374
30730,0.992,0.228,0.168,3.62,-0.35,2.16,-74.072,53.62,42.824,0,381
30750,0.988,0.244,0.148,2.57,0.28,1.53,-73.894,58.765,42.687,0,363
30772,0.996,0.24,0.164,2.37,1.53,2.3,-73.736,55.658,42.687,0,367
30792,0.992,0.248,0.16,1.95,1.39,3.2,-73.418,58.907,42.687,0,369
30814,0.984,0.248,0.16,1.95,0.49,2.16,-73.061,58.647,42.687,0,362
30834,0.988,0.248,0.156,1.81,1.04,2.3,-74.128,59.041,42.687,0,342
30855,0.976,0.236,0.148,0.83,1.39,2.3,-74.076,57.912,42.857,0,339
30876,0.98,0.236,0.156,0.77,1.25,2.37,-73.903,56.539,42.713,0,338
30897,0.98,0.244,0.148,1.25,1.39,2.3,-73.77,58.765,42.752,0,338
30917,0.984,0.244,0.168,1.04,1.74,1.95,-73.25,55.456,42.787,0,345
30939,0.984,0.252,0.144,0.35,1.32,2.5,-73.571,60.26,42.661,0,321
30959,0.992,0.24,0.16,1.67,1.25,2.37,-73.844,58.083,42.661,0,312
30981,0.984,0.244,0.148,0.77,1.18,2.43,-73.711,59.177,42.661,0,307
31001,0.992,0.252,0.156,0.42,1.81,2.3,-73.677,56.75,42.661,0,305
31022,0.984,0.252,0.156,0.21,2.57,2.92,-73.243,58.245,42.661,0,307
31043,0.98,0.24,0.156,0.7,2.57,3.06,-73.723,56.98,42.677,0,333
31064,0.976,0.236,0.156,1.18,2.09,2.64,-73.841,56.539,42.786,0,343
31084,0.98,0.24,0.156,1.32,2.02,2.64,-73.723,56.98,42.917,0,349
31106,0.976,0.24,0.152,1.25,1.67,2.71,-73.777,57.657,42.749,0,354
31126,0.984,0.248,0.148,1.25,1.46,2.92,-73.538,58.5,42.901,0,334
31148,0.988,0.248,0.164,0.7,0.07,1.67,-72.751,57.999,42.881,0,320
31168,0.988,0.248,0.16,1.6,-0.28,2.02,-73.258,57.592,42.881,0,325
31188,0.984,0.248,0.16,1.67,-0.14,2.64,-73.31,57.176,42.881,0,316
31210,0.976,0.24,0.16,2.64,-1.04,2.16,-73.541,56.314,42.881,0,310
31230,0.984,0.24,0.148,1.11,0.35,2.57,-74.016,58.344,42.913,0,333
31251,0.972,0.24,0.148,1.81,0.35,2.5,-73.829,58.344,42.726,0,348
31272,0.976,0.236,0.148,2.09,0.28,2.16,-74.076,57.912,42.846,0,484
31293,0.98,0.24,0.156,1.74,0.35,2.43,-73.605,56.314,42.849,0,242
31314,0.984,0.244,0.168,2.37,-0.56,2.23,-73.82,59.863,42.782,0,344
31335,0.98,0.248,0.108,2.57,-1.04,2.37,-73.436,63.088,42.861,0,329
31355,0.992,0.244,0.148,-0.42,1.11,1.6,-73.956,58.765,42.861,0,329
31377,0.984,0.248,0.14,-1.04,2.02,2.78,-73.864,60.559,42.861,0,325
31397,0.984,0.252,0.148,3.2,0.14,2.85,-73.464,59.579,42.861,0,326
31419,0.992,0.244,0.14,3.9,0.49,2.02,-74.173,60.159,42.861,0,356
31439,0.98,0.24,0.144,2.71,0.42,1.04,-74.066,59.041,43.041,0,380
31460,0.988,0.248,0.144,1.88,1.39,1.95,-73.82,59.863,43.021,0,396
31481,0.984,0.252,0.144,1.32,1.11,2.85,-73.614,60.95,42.802,0,414
31502,0.984,0.252,0.136,2.09,0.63,2.57,-73.465,62.392,43.045,0,394
31522,0.984,0.252,0.136,1.46,0.63,2.16,-73.717,61.65,42.941,0,350
31544,0.988,0.248,0.144,1.67,0.56,1.6,-73.82,59.863,42.941,0,311
31564,0.992,0.256,0.14,-0.14,2.71,2.71,-73.615,61.331,42.941,0,296
31586,0.98,0.252,0.148,0.7,1.74,2.71,-73.4,59.579,42.941,0,289
31606,0.984,0.252,0.132,0.97,3.69,2.78,-73.881,62.359,42.941,0,316
31627,0.976,0.252,0.132,1.53,2.71,2.57,-73.755,62.359,43.057,0,329
31648,0.98,0.244,0.14,2.43,2.23,2.57,-73.55,60.95,43.133,0,342
31669,0.984,0.248,0.14,0.97,2.16,2.57,-74.03,61.265,43.133,0,348
31690,0.98,0.248,0.14,0.77,2.5,2.71,-73.407,59.971,43.073,0,339
31711,0.984,0.256,0.14,0.07,2.99,2.64,-73.489,61.331,43.181,0,319
31731,0.98,0.252,0.148,0.97,2.37,2.64,-73.4,59.579,43.181,0,307
31753,0.988,0.252,0.152,0.42,2.23,2.43,-73.418,58.907,43.181,0,305
31773,0.984,0.26,0.148,0.21,1.74,2.92,-73.094,60.355,43.181,0,301
31794,0.98,0.248,0.152,0.56,1.46,3.27,-73.474,58.5,43.181,0,324
31815,0.976,0.248,0.152,0.97,1.74,3.13,-73.694,59.863,43.32,0,339
31836,0.98,0.252,0.144,0.42,1.74,2.85,-73.694,59.863,43.317,0,351
31857,0.976,0.252,0.144,0.7,1.11,2.02,-73.192,60.647,43.289,0,358
31878,0.988,0.256,0.148,0.83,1.74,2.71,-73.343,59.971,43.037,0,359
31898,0.988,0.256,0.148,-0.35,1.46,3.27,-73.343,59.971,43.173,0,339
31920,0.984,0.252,0.148,0.14,1.25,3.27,-73.464,59.579,43.173,0,322
31940,0.988,0.256,0.148,-0.35,2.02,3.41,-73.343,59.971,43.173,0,313
31962,0.988,0.252,0.136,-0.63,2.37,3.41,-73.842,61.65,43.173,0,309
31982,0.972,0.252,0.136,-0.28,2.23,3.62,-73.818,59.457,43.173,0,440
32003,0.976,0.24,0.144,0.07,1.81,3.2,-74.238,59.748,43.309,0,272
32024,0.98,0.248,0.156,-2.16,0.28,2.92,-73.226,58.907,42.97,0,296
32045,0.976,0.248,0.104,2.02,0.21,2.57,-74.601,67.254,43.133,0,353
32066,0.992,0.248,0.156,-3.2,3.2,4.03,-73.551,57.833,42.861,0,365
32087,0.98,0.244,0.156,-4.24,3.97,4.24,-73.542,57.412,43.149,0,345
32107,0.976,0.256,0.136,-1.04,2.78,4.66,-73.463,62.025,43.149,0,339
32129,0.996,0.252,0.156,-0.14,2.78,3.62,-73.434,58.245,43.149,0,339
32149,0.992,0.252,0.144,-0.63,2.99,2.85,-73.488,57.833,43.149,0,348
32169,0.984,0.252,0.164,-1.53,3.27,2.16,-73.648,59.177,43.149,0,367
32191,0.984,0.248,0.148,-1.18,4.38,3.55,-73.571,60.26,43.029,0,401
32211,0.988,0.244,0.144,-1.6,4.17,4.17,-74.004,59.457,43.065,0,406
32233,0.98,0.24,0.148,-0.63,3.9,4.52,-73.954,58.344,43.053,0,388
32253,0.976,0.236,0.148,-2.02,4.31,4.24,-74.076,57.912,42.777,0,355
32274,0.984,0.244,0.152,-2.3,3.69,3.2,-73.72,58.083,42.882,0,308
32295,0.996,0.236,0.148,-1.88,5.5,4.59,-74.38,57.912,42.882,0,294
32316,0.984,0.248,0.18,-1.32,5.36,4.59,-72.708,54.032,42.882,0,289
32337,0.988,0.244,0.136,-1.11,5.36,3.76,-73.361,56.75,42.882,0,288
32358,0.988,0.248,0.168,-1.18,4.94,3.83,-73.43,54.376,42.882,0,292
32378,0.984,0.244,0.16,-2.23,5.22,4.45,-73.242,56.098,42.901,0,322
32400,0.98,0.244,0.156,-2.57,5.57,4.87,-73.542,57.412,42.81,0,335
32420,0.976,0.24,0.164,-2.5,4.8,4.17,-73.42,55.658,42.828,0,336
32441,0.98,0.232,0.16,-2.16,5.57,4.73,-73.962,55.412,42.68,0,341
32462,0.98,0.232,0.168,-1.95,5.08,5.5,-73.713,54.094,42.731,0,317
32483,0.976,0.24,0.176,-2.3,5.15,4.59,-73.047,53.75,42.731,0,311
32504,0.984,0.236,0.172,-0.56,4.38,3.83,-73.177,53.75,42.731,0,304
32525,0.996,0.24,0.168,-0.28,5.7,5.15,-73.349,53.29,42.731,0,304
32545,0.98,0.236,0.18,0.7,5.29,6.19,-73.887,53.62,42.731,0,304
32567,0.98,0.228,0.172,-0.49,5.36,5.43,-73.758,52.974,42.763,0,330
32587,0.972,0.24,0.18,-0.35,4.31,4.59,-72.853,53.134,42.567,0,342
32608,0.972,0.236,0.188,1.25,3.06,3.62,-72.76,51.463,42.509,0,350
32629,0.972,0.232,0.184,0.35,4.03,5.01,-73.063,51.586,42.53,0,370
32650,0.972,0.228,0.184,1.53,3.34,5.91,-73.231,51.1,42.426,0,341
32671,0.984,0.224,0.184,0.49,3.76,5.91,-72.893,51.463,42.551,0,323
32692,0.98,0.228,0.18,0,4.1,5.43,-73.648,53.451,42.551,0,315
32712,0.984,0.224,0.176,-0.28,4.31,5.08,-73.488,51.1,42.551,0,314
32734,0.992,0.228,0.196,0.28,3.55,4.38,-73.144,49.32,42.551,0,463
32754,0.976,0.22,0.196,-0.77,2.3,4.45,-73.207,48.305,42.592,0,221
32775,0.972,0.22,0.204,-1.25,0.83,3.48,-72.852,47.165,42.345,0,353
32796,0.972,0.224,0.152,-0.97,0.49,2.09,-74.443,55.844,42.313,0,362
32817,0.98,0.22,0.204,-4.59,1.32,0.97,-72.983,47.165,42.49,0,371
32838,0.984,0.216,0.196,-3.41,1.53,0.83,-73.495,47.783,42.419,0,358
32859,0.976,0.236,0.192,0.83,-1.32,0.49,-72.049,49.089,42.383,1,347
32879,0.984,0.232,0.196,1.95,-1.18,-0.77,-73.258,51.586,42.383,1,351
32901,0.988,0.224,0.196,0.21,0.21,-0.9,-73.015,49.32,42.383,1,359
32921,0.988,0.236,0.2,-0.49,2.23,-0.14,-72.62,49.724,42.383,1,373
32942,0.972,0.228,0.18,0.21,1.81,0.56,-73.366,51.714,42.383,1,406
32963,0.976,0.228,0.188,0.28,1.39,1.04,-73.16,50.496,42.569,1,412
32984,0.972,0.236,0.184,-0.9,1.46,1.11,-72.893,52.062,42.512,1,389
33004,0.968,0.232,0.176,-2.16,1.25,0.77,-73.262,52.819,42.72,1,362
33026,0.968,0.236,0.188,-0.9,0.21,0,-72.556,50.294,42.628,1,329
33046,0.984,0.236,0.172,-1.46,0.49,0.14,-72.324,50.198,42.547,1,309
33068,0.98,0.248,0.204,-2.37,2.37,0.28,-72.641,54.032,42.547,1,304
33088,0.976,0.24,0.188,-1.32,1.88,0.97,-72.658,51.931,42.547,1,299
33108,0.98,0.24,0.184,0.42,1.88,0.7,-72.856,52.528,42.547,1,300
33130,0.976,0.236,0.18,-1.04,1.53,0.83,-73.09,52.671,42.547,1,324
33150,0.972,0.244,0.188,-1.67,1.81,1.11,-72.422,52.39,42.717,1,333
33171,0.972,0.232,0.18,-0.21,1.53,1.11,-73.196,52.197,42.838,1,340
33192,0.964,0.236,0.192,-0.49,1.18,1.74,-72.997,51.586,42.806,1,342
33213,0.968,0.228,0.18,0.42,0.97,2.02,-72.759,50.873,42.846,1,333
33233,0.976,0.24,0.184,0.7,0.97,2.78,-72.725,51.931,42.641,1,311
33255,0.976,0.24,0.188,0.7,1.11,3.2,-72.658,51.931,42.641,1,306
33275,0.98,0.236,0.188,0.7,0.97,3.55,-72.893,51.463,42.641,1,302
33297,0.984,0.232,0.188,0.63,0.9,3.55,-73.124,50.984,42.641,1,301
33317,0.972,0.232,0.184,0.35,0.63,3.27,-73.063,51.586,42.641,1,319
33338,0.972,0.236,0.184,0.9,0.28,2.99,-72.893,52.062,42.737,1,335
33359,0.976,0.232,0.184,0.7,0.56,3.06,-73.128,51.586,42.936,1,347
33380,0.968,0.236,0.184,0.56,0.21,3.41,-73.261,52.197,42.879,1,359
33400,0.976,0.228,0.192,0.35,0.28,3.13,-72.426,51.805,42.749,1,346
33422,0.98,0.244,0.188,-1.6,1.04,3.27,-72.426,51.805,42.988,1,321
33442,0.976,0.24,0.176,-1.53,1.25,3.48,-73.047,53.75,42.988,1,312
33463,0.98,0.236,0.184,-1.04,1.11,3.34,-73.025,52.062,42.988,1,369
33484,0.98,0.232,0.184,-0.07,0.42,2.85,-73.193,51.586,42.988,1,326
33505,0.98,0.232,0.2,-0.7,0.28,3.06,-72.648,49.24,42.988,1,205
33526,0.976,0.232,0.172,1.53,1.04,2.85,-73.522,53.451,42.867,1,341
33547,0.964,0.236,0.16,-1.6,0.7,3.34,-71.951,46.026,42.652,1,359
33567,0.98,0.224,0.184,-3.2,2.3,2.09,-73.236,51.714,42.649,1,367
33589,0.96,0.232,0.164,0.42,1.39,2.64,-73.541,56.314,42.705,1,370
33609,0.992,0.228,0.188,2.43,1.11,2.23,-73.417,50.496,42.858,1,353
33630,0.984,0.228,0.172,1.67,2.09,2.16,-73.82,52.974,42.858,1,351
33651,0.98,0.24,0.192,0.97,2.23,2.57,-72.593,51.344,42.858,1,356
33672,0.98,0.24,0.18,1.53,2.23,2.71,-72.985,53.134,42.858,1,364
33692,0.968,0.24,0.188,1.74,1.88,2.78,-72.524,51.931,42.858,1,375
33714,0.968,0.232,0.18,2.3,0.97,2.5,-73.063,51.586,42.75,1,379
33734,0.976,0.232,0.18,1.04,1.39,2.16,-72.658,51.931,42.749,1,353
33756,0.98,0.236,0.188,0.97,0.9,2.71,-72.625,50.873,42.781,1,342
33776,0.976,0.232,0.18,1.88,1.18,2.02,-73.261,52.197,42.846,1,338
33797,0.98,0.248,0.208,-0.35,1.04,2.71,-71.728,50.017,42.85,1,312
33818,0.984,0.24,0.172,0.07,1.67,2.64,-73.302,54.376,42.85,1,305
33839,0.984,0.236,0.176,2.43,1.39,2.92,-73.349,53.29,42.85,1,301
33859,0.972,0.244,0.188,0.97,1.53,2.64,-72.422,52.39,42.85,1,299
33881,0.988,0.232,0.192,1.18,1.18,2.23,-73.054,50.393,42.85,1,303
33901,0.976,0.24,0.172,-1.04,2.71,2.78,-72.892,52.671,42.858,1,333
33922,0.968,0.232,0.176,0,2.3,3.06,-73.063,51.586,42.782,1,339
33943,0.972,0.228,0.184,-0.83,2.99,3.06,-72.93,51.586,42.742,1,343
33964,0.96,0.232,0.188,-0.07,2.57,2.78,-72.727,50.984,42.875,1,351
33985,0.972,0.236,0.188,-0.35,2.85,2.71,-72.76,51.463,42.85,1,323
34006,0.976,0.232,0.188,1.04,2.23,2.57,-72.994,50.984,42.85,1,313
34026,0.976,0.24,0.188,0.83,2.09,2.3,-72.658,51.931,42.85,1,305
34048,0.98,0.24,0.184,0.49,2.16,2.43,-72.856,52.528,42.85,1,302
34068,0.98,0.244,0.188,0.21,1.88,2.43,-72.556,50.294,42.85,1,309
34088,0.976,0.232,0.188,0.14,1.81,2.09,-72.759,50.873,42.777,1,333
34110,0.984,0.236,0.184,-0.07,2.09,2.02,-72.658,51.931,43.008,1,335
34130,0.976,0.24,0.184,-0.49,2.71,2.23,-72.79,52.528,42.906,1,340
34151,0.976,0.24,0.18,-0.77,2.71,2.3,-72.919,53.134,43.101,1,400
34172,0.976,0.244,0.192,0.56,2.16,2.23,-72.359,51.805,42.947,1,329
34193,0.976,0.248,0.196,0.77,1.6,2.37,-72.06,51.684,42.959,1,211
34214,0.976,0.24,0.176,1.88,1.53,2.09,-73.047,53.75,42.959,1,309
34235,0.964,0.248,0.172,-0.97,-0.9,3.2,-71.717,47.537,42.959,1,317
34255,0.98,0.232,0.176,-2.09,0.14,3.06,-72.518,49.812,42.959,1,318
34277,0.96,0.228,0.164,0.28,-0.28,3.2,-74.021,56.087,42.976,1,347
34297,0.992,0.228,0.192,2.78,0.21,2.3,-73.281,49.903,42.817,1,363
34318,0.984,0.236,0.176,1.04,1.67,2.3,-73.349,53.29,42.923,1,375
34339,0.984,0.232,0.192,1.25,2.3,2.99,-72.989,50.393,42.98,1,390
34360,0.976,0.244,0.188,1.04,2.37,2.71,-72.49,52.39,42.988,1,380
34380,0.972,0.252,0.196,0.28,1.04,2.99,-71.823,52.129,42.971,1,372
34402,0.972,0.236,0.192,1.88,-0.14,3.06,-72.625,50.873,42.971,1,345
34422,0.976,0.244,0.184,0.49,0.21,3.97,-72.388,52.839,42.971,1,314
34444,0.976,0.244,0.188,-0.83,0.56,3.62,-72.157,51.23,42.971,1,297
34464,0.968,0.236,0.188,-0.28,0.77,3.97,-72.827,52.062,42.971,1,314
34485,0.972,0.24,0.2,-2.37,0.77,4.03,-72.187,50.198,42.834,1,329
34506,0.964,0.24,0.18,-2.92,0.83,3.83,-72.719,53.134,42.849,1,335
34527,0.98,0.232,0.184,-0.77,0.63,3.62,-73.193,51.586,42.685,1,341
34547,0.984,0.24,0.2,-0.97,1.25,3.06,-72.391,50.198,42.773,1,332
34569,0.988,0.236,0.192,-1.53,1.53,3.34,-72.89,50.873,42.732,1,317
34589,0.984,0.24,0.188,-2.09,2.02,4.38,-72.791,51.931,42.732,1,311
34611,0.98,0.24,0.18,-1.18,1.6,4.31,-72.692,50.873,42.732,1,302
34631,0.98,0.232,0.188,-0.56,1.04,4.38,-72.928,50.984,42.732,1,296
34652,0.976,0.224,0.184,0.56,0.14,3.83,-73.463,50.603,42.732,1,320
34673,0.984,0.224,0.176,0.7,-0.21,3.69,-73.86,51.847,42.611,1,335
34694,0.98,0.22,0.18,1.53,-0.7,4.1,-73.83,50.714,42.696,1,343
34714,0.984,0.228,0.172,1.04,-1.81,4.31,-73.82,52.974,42.566,1,357
34736,0.972,0.24,0.172,1.74,-3.2,3.62,-73.108,54.376,42.516,1,344
34756,0.98,0.228,0.168,0.7,-5.08,3.41,-73.52,52.819,42.408,1,318
34778,0.98,0.236,0.18,1.67,-5.22,2.78,-73.09,52.062,42.408,1,311
34798,0.988,0.236,0.18,1.67,-4.52,2.64,-73.583,52.819,42.408,1,305
34819,0.984,0.232,0.18,1.6,-2.64,2.99,-73.39,52.197,42.408,1,405
34840,0.976,0.22,0.172,1.6,-1.39,2.92,-74.038,51.985,42.408,1,226
34861,0.972,0.228,0.168,0.97,-0.9,3.27,-73.761,53.62,42.419,1,339
34881,0.96,0.228,0.124,0.9,-2.02,3.69,-74.877,61.465,42.399,1,345
34903,0.972,0.216,0.188,-0.07,-0.35,2.99,-73.59,48.968,42.342,1,356
34923,0.956,0.224,0.18,-2.23,-0.49,3.97,-73.275,51.219,42.326,1,354
34944,0.988,0.236,0.164,1.95,-1.11,2.99,-73.983,51.847,42.479,1,337
34965,1,0.224,0.18,3.06,0.21,1.74,-74.719,53.301,42.479,1,331
34985,1,0.228,0.16,0,1.67,2.92,-73.476,53.29,42.479,1,334
35007,0.988,0.24,0.172,1.11,1.46,2.85,-73.366,54.376,42.479,1,341
35027,0.98,0.236,0.168,1.04,0.35,2.78,-73.538,54.558,42.479,1,361
35048,0.976,0.236,0.16,1.46,0.07,2.37,-73.72,55.868,42.474,1,374
35069,0.972,0.232,0.164,2.09,-0.21,2.09,-73.712,54.748,42.383,1,362
35090,0.976,0.228,0.16,1.39,0,2.43,-74.077,54.945,42.183,1,346
35110,0.972,0.228,0.16,0.77,-0.21,2.43,-73.41,54.558,42.34,1,340
35132,0.984,0.228,0.156,0.63,0.14,2.5,-74.199,57.912,42.22,1,315
35152,0.972,0.24,0.18,-0.49,-0.28,3.34,-73.283,53.919,42.22,1,302
35174,0.984,0.232,0.148,0.77,-1.32,3.27,-74.381,57.469,42.22,1,297
35194,0.984,0.232,0.164,0.35,-1.25,3.27,-73.9,54.748,42.22,1,295
35215,0.988,0.224,0.144,0.97,-0.28,3.13,-74.921,57.269,42.22,1,307
35236,0.98,0.232,0.148,-0.49,1.88,3.62,-74.321,57.469,42.424,1,327
35257,0.98,0.22,0.156,0.63,2.09,3.27,-74.619,54.664,42.173,1,338
35277,0.976,0.216,0.156,0.28,1.74,2.99,-74.685,56.551,42.268,1,342
35299,0.98,0.224,0.148,0.07,1.6,3.34,-74.503,57.016,42.147,0,344
35319,0.988,0.228,0.16,0.63,0.77,3.27,-74.198,54.277,42.198,0,317
35341,0.988,0.232,0.16,0.28,1.25,2.99,-74.085,55.412,42.198,0,306
35361,0.992,0.24,0.16,0.42,0.97,2.99,-73.793,56.314,42.198,0,303
35382,0.988,0.236,0.156,0.49,1.18,2.85,-74.027,56.539,42.198,0,302
35403,0.976,0.24,0.168,0.56,0.21,3.2,-73.298,55.012,42.198,0,301
35424,0.98,0.228,0.16,0.56,0.28,3.13,-74.139,54.945,42.17,0,323
35444,0.972,0.232,0.156,0.42,-0.28,3.41,-73.959,56.087,42.252,0,335
35466,0.976,0.228,0.16,1.81,-0.77,3.48,-74.023,55.412,42.126,0,407
35486,0.98,0.224,0.156,1.39,-0.83,3.48,-74.441,55.15,42.071,0,302
35507,0.992,0.236,0.152,1.25,-0.49,3.97,-74.205,57.22,42.172,0,261
35528,0.992,0.232,0.116,5.22,-0.83,3.2,-75.352,63.44,42.172,0,315
35549,0.988,0.232,0.196,0.97,-1.53,3.27,-72.918,49.812,42.172,0,318
35570,0.992,0.232,0.16,-0.7,-0.49,3.2,-74.146,55.412,42.172,0,322
35591,0.988,0.24,0.136,-0.14,-1.18,4.03,-74.405,60.466,42.172,0,326
35611,0.992,0.22,0.16,3.2,-1.88,2.5,-74.671,53.977,42.154,0,357
35633,0.996,0.22,0.128,1.81,-0.77,2.43,-74.911,58.453,42.03,0,370
35653,0.992,0.228,0.156,0.9,1.46,3.76,-74.373,58.614,42.135,0,387
35675,0.988,0.232,0.144,0.77,2.09,3.27,-74.381,57.469,41.969,0,400
35695,0.992,0.232,0.148,0.28,1.39,2.78,-74.501,57.469,42.094,0,380
35716,0.992,0.232,0.152,1.81,0.07,2.78,-74.385,56.772,42.063,0,352
35737,0.996,0.228,0.14,0.83,0.9,3.2,-74.969,58.453,42.063,0,319
35758,0.984,0.228,0.144,1.32,1.32,3.34,-74.68,57.729,42.063,0,308
35778,0.996,0.232,0.136,1.11,2.16,3.06,-74.896,59.625,42.063,0,300
35800,0.984,0.224,0.16,-0.21,2.23,2.92,-75.037,57.999,42.016,0,328
35820,0.992,0.228,0.128,0,2.78,3.34,-74.728,58.896,42.052,0,339
35842,0.992,0.224,0.136,0.21,1.74,3.48,-74.564,56.314,42.025,0,345
35862,0.988,0.224,0.136,0.07,1.74,2.64,-75.151,58.741,41.872,0,351
35883,0.988,0.236,0.152,-0.77,2.16,3.13,-74.144,57.22,42.027,0,334
35904,0.988,0.232,0.148,-0.07,2.71,3.34,-74.441,57.469,41.955,0,323
35924,0.992,0.228,0.148,0.35,2.92,2.64,-74.682,57.016,41.955,0,313
35945,0.988,0.224,0.16,1.11,3.27,2.57,-74.437,54.466,41.955,0,310
35966,0.984,0.228,0.152,1.25,3.2,2.85,-74.32,57.912,41.955,0,305
35987,0.976,0.224,0.144,1.25,3.76,2.43,-74.62,57.729,41.955,0,329
36008,0.98,0.224,0.144,1.32,3.34,2.09,-74.563,57.016,42.104,0,342
36029,0.984,0.224,0.148,0.97,2.78,2.09,-74.744,56.551,42.114,0,349
36049,0.98,0.228,0.148,0.97,3.06,2.23,-74.503,57.016,42.027,0,367
36071,0.988,0.232,0.156,1.53,2.02,2.02,-74.206,56.087,42.094,0,342
36091,0.992,0.236,0.152,0.97,1.88,2.02,-74.205,57.22,42.162,0,323
36112,0.996,0.236,0.152,0.21,2.16,2.37,-74.265,57.22,42.162,0,314
36133,0.996,0.232,0.144,0,1.88,2.5,-74.674,58.177,42.162,0,352
36154,0.988,0.236,0.148,0.14,1.74,2.37,-74.501,57.469,42.162,0,322
36174,0.988,0.228,0.156,-0.07,2.3,2.57,-74.444,55.624,42.162,0,226
36196,0.984,0.224,0.148,4.38,1.53,2.43,-75.683,62.627,42.187,0,352
36216,0.976,0.236,0.164,-0.14,1.6,3.27,-73.598,55.208,42.005,0,364
36238,0.984,0.224,0.148,-1.74,3.27,2.16,-74.744,56.551,42.324,0,374
36258,0.972,0.236,0.124,-0.97,3.34,3.2,-74.668,62.286,42.082,0,370
36279,0.996,0.228,0.16,2.85,2.37,2.37,-74.381,54.945,42.304,0,349
36300,0.996,0.232,0.14,1.39,3.83,1.32,-74.786,58.896,42.304,0,349
36321,0.992,0.232,0.156,1.04,4.17,1.53,-73.854,56.314,42.304,0,359
36342,0.996,0.24,0.152,1.04,3.97,2.57,-73.782,58.083,42.304,0,362
36363,0.988,0.24,0.156,1.18,3.27,2.43,-74.496,58.177,42.304,0,381
36383,0.972,0.236,0.152,0.77,2.09,2.64,-73.897,57.22,42.317,0,385
36405,0.984,0.224,0.148,1.32,1.88,2.43,-74.744,56.551,42.173,0,366
36425,0.98,0.232,0.152,-0.14,2.23,2.99,-74.203,56.772,42.094,0,355
36446,0.992,0.224,0.148,1.25,2.99,2.5,-74.862,56.551,42.349,0,348
36467,0.996,0.236,0.18,-0.63,3.69,2.71,-73.411,52.671,42.442,0,320
36488,0.992,0.24,0.152,1.11,4.45,2.71,-74.323,55.624,42.442,0,316
36509,0.992,0.224,0.148,1.6,3.48,2.57,-74.199,57.912,42.442,0,315
36530,0.984,0.232,0.16,0.49,4.1,2.57,-73.786,56.98,42.442,0,314
36550,0.988,0.228,0.148,0.35,3.62,2.64,-74.623,57.016,42.442,0,326
36572,0.976,0.24,0.156,-0.7,4.38,3.2,-73.66,56.98,42.452,0,343
36592,0.972,0.232,0.156,-0.28,3.69,2.3,-73.959,56.087,42.452,0,353
36613,0.984,0.232,0.164,0,4.24,2.5,-73.9,54.748,42.396,0,350
36634,0.988,0.224,0.164,0.14,4.45,3.41,-74.311,53.795,42.53,0,352
36655,0.984,0.232,0.168,0.77,4.24,3.2,-73.962,54.748,42.612,0,327
36676,0.984,0.236,0.164,0.97,3.69,3.34,-73.775,54.094,42.612,0,315
36697,0.984,0.236,0.168,1.74,3.83,2.71,-73.91,55.208,42.612,0,311
36717,0.984,0.24,0.164,1.81,3.41,1.81,-73.548,55.658,42.612,0,321
36739,0.98,0.232,0.172,1.6,3.34,1.67,-73.585,53.451,42.612,0,325
36759,0.988,0.232,0.16,0.97,3.97,2.71,-74.085,55.412,42.651,0,338
36780,0.972,0.228,0.16,0.42,4.03,2.71,-74.015,54.945,42.527,0,352
36801,0.968,0.232,0.152,-0.56,3.48,3.2,-74.017,56.772,42.505,0,364
36822,0.972,0.224,0.168,-0.21,2.71,3.06,-73.936,53.134,42.749,0,486
36843,0.988,0.24,0.168,-0.14,2.92,4.24,-73.22,52.671,42.646,0,224
36864,0.984,0.24,0.184,1.18,0.7,3.62,-73.661,55.208,42.646,0,339
36884,0.984,0.232,0.136,2.16,0.35,3.27,-73.605,56.314,42.646,0,328
36905,0.996,0.236,0.168,-2.02,2.71,2.64,-73.788,54.558,42.646,0,330
36926,0.96,0.232,0.156,-2.37,2.85,3.83,-73.769,56.087,42.646,0,338
36946,0.98,0.232,0.168,1.46,0.56,3.69,-73.713,54.094,42.535,0,365
36968,0.988,0.216,0.168,3.55,0.28,2.09,-74.525,52.129,42.417,0,382
36988,0.98,0.232,0.172,1.46,1.74,2.23,-73.585,53.451,42.54,0,398
37010,0.984,0.236,0.172,1.39,2.37,2.57,-73.899,55.412,42.551,0,411
37030,0.984,0.24,0.176,1.04,2.37,3.34,-73.362,55.012,42.428,0,400
37051,0.984,0.236,0.172,2.02,1.18,3.34,-73.583,52.819,42.428,0,381
37072,0.98,0.24,0.168,1.25,1.67,3.55,-73.362,55.012,42.428,0,348
37093,0.972,0.244,0.172,1.04,1.53,2.37,-72.932,54.823,42.428,0,315
37113,0.992,0.232,0.168,0.42,2.3,3.13,-73.899,54.094,42.428,0,301
37135,0.98,0.224,0.164,-0.56,1.67,3.48,-74.189,53.795,42.572,0,326
37155,0.976,0.232,0.172,0,2.23,3.34,-73.522,53.451,42.546,0,335
37177,0.98,0.228,0.164,1.04,1.53,3.34,-73.758,52.974,42.559,0,346
37197,0.972,0.224,0.176,1.6,0.56,2.16,-73.695,52.974,42.397,0,350
37218,0.98,0.232,0.168,0.42,1.18,2.09,-73.189,50.984,42.654,0,330
37239,0.988,0.236,0.168,-0.28,1.67,3.13,-73.664,54.558,42.743,0,315
37260,0.988,0.236,0.172,0,1.53,3.55,-73.539,53.919,42.743,0,307
37280,0.98,0.24,0.176,0,1.6,3.62,-73.112,53.75,42.743,0,298
37302,0.976,0.232,0.176,0.42,0.63,3.34,-73.392,52.819,42.743,0,296
37322,0.972,0.228,0.164,1.32,0.21,3.2,-73.889,54.277,42.722,0,321
37344,0.972,0.228,0.164,1.6,-0.63,1.95,-73.889,54.277,42.455,0,330
37364,0.984,0.228,0.168,1.95,0.49,2.71,-74.484,53.301,42.362,0,342
37385,0.98,0.228,0.164,1.46,0.7,2.99,-73.713,54.094,42.586,0,338
37406,0.98,0.24,0.164,0.97,0.9,2.43,-73.362,55.012,42.544,0,341
37427,0.976,0.24,0.168,0.7,0.14,2.23,-73.298,55.012,42.618,0,321
37447,0.984,0.236,0.168,0.7,-0.56,1.67,-73.601,54.558,42.618,0,308
37469,0.988,0.24,0.164,-0.49,0.9,3.41,-73.611,55.658,42.618,0,304
37489,0.98,0.232,0.16,0.56,0.14,3.48,-73.962,55.412,42.618,0,333
37510,0.968,0.236,0.168,0.21,-0.14,2.16,-73.345,54.558,42.618,0,400
37531,0.984,0.228,0.168,-0.83,-0.21,2.99,-73.773,53.451,42.716,0,216
37552,0.98,0.228,0.16,2.3,-0.42,2.71,-75.555,60.597,42.69,0,345
37573,0.964,0.24,0.132,-2.23,-0.7,3.2,-73.233,55.012,42.401,0,352
37594,1,0.232,0.172,-4.8,1.25,2.43,-73.896,53.451,42.394,0,342
37614,0.98,0.24,0.144,-2.71,2.09,3.62,-74.066,59.041,42.646,0,332
37636,0.988,0.236,0.172,2.43,-0.28,3.34,-73.539,53.919,42.646,0,327
37656,0.992,0.228,0.156,2.71,-0.28,1.88,-74.444,55.624,42.646,0,334
37678,0.988,0.236,0.164,1.6,0.28,1.88,-73.787,55.208,42.646,0,343
37698,0.976,0.232,0.152,1.95,0.28,1.67,-74.623,57.016,42.646,0,379
37719,0.988,0.232,0.156,0.63,1.18,2.85,-74.325,56.772,42.432,0,400
37740,0.98,0.228,0.152,1.39,0.21,2.71,-74.259,57.469,42.412,0,392
37761,0.98,0.232,0.152,0.42,1.18,2.64,-74.203,56.772,42.489,0,365
37781,0.98,0.24,0.152,-0.42,1.18,2.57,-73.84,57.657,42.482,0,329
37803,0.988,0.236,0.152,-0.07,1.11,2.23,-74.144,57.22,42.656,0,300
37823,0.988,0.24,0.168,-0.35,2.02,3.2,-73.49,55.012,42.656,0,288
37844,0.984,0.24,0.148,1.18,3.2,2.43,-74.016,58.344,42.656,0,287
37865,0.98,0.236,0.168,-0.07,2.3,2.92,-73.516,52.197,42.656,0,289
37885,0.988,0.228,0.16,0.28,2.16,2.85,-74.139,54.945,42.656,0,308
37907,0.976,0.232,0.16,-0.97,2.16,3.27,-73.522,53.451,42.446,0,327
37927,0.984,0.232,0.164,-1.95,2.37,3.55,-73.9,54.748,42.326,0,330
37948,0.98,0.236,0.156,-3.41,2.85,3.69,-73.903,56.539,42.523,0,336
37969,0.984,0.232,0.176,-3.41,3.2,3.55,-73.52,52.819,42.295,0,334
37990,0.984,0.236,0.164,-2.78,3.27,3.27,-73.724,55.208,42.302,0,308
38011,0.984,0.236,0.164,-1.88,2.99,3.13,-73.724,55.208,42.302,0,299
38032,0.984,0.236,0.168,-1.39,2.57,2.92,-73.601,54.558,42.302,0,292
38052,0.988,0.236,0.164,-0.63,2.5,2.92,-73.648,53.451,42.302,0,295
38074,0.984,0.232,0.168,-0.7,2.16,2.71,-74.316,54.466,42.302,0,311
