Time,ax,ay,az,gx,gy ,gz ,r ,p,y,manual,heart
77,1.056,0.16,-0.124,4.17,4.1,5.43,-79.154,127.785,0,0,373
98,1.056,0.144,-0.116,2.64,4.38,3.83,-80.074,128.863,38.907,0,347
118,1.056,0.16,-0.12,0.7,3.76,3.13,-79.281,126.879,39.116,0,325
140,1.044,0.164,-0.108,-1.11,3.69,3.27,-79.353,123.375,38.968,0,312
160,1.04,0.152,-0.136,-0.7,4.38,2.64,-78.91,131.83,38.962,0,313
181,1.036,0.172,-0.076,-3.55,3.13,3.06,-79.718,113.847,38.881,0,313
202,1.032,0.164,-0.132,-3.06,4.66,3.69,-78.822,125.282,38.881,0,320
223,1.016,0.164,-0.092,-2.99,2.92,3.9,-79.259,121.382,38.881,0,326
243,1.012,0.164,-0.108,-4.03,3.27,3.34,-78.517,121.544,38.881,0,327
265,1.012,0.16,-0.112,-5.43,3.2,4.31,-79.083,125.001,38.881,0,332
285,1.02,0.156,-0.108,-5.63,3.27,4.31,-79.468,124.704,38.956,0,333
306,1.024,0.152,-0.096,-3.9,1.04,4.45,-80.048,122.285,38.993,0,325
327,1.024,0.156,-0.12,-3.27,-0.21,4.38,-79.126,127.578,38.998,0,318
348,1.028,0.152,-0.14,-0.97,-0.49,2.64,-78.64,132.656,38.901,0,315
369,1.032,0.168,-0.136,-0.49,-0.63,2.09,-78.176,129,38.836,0,308
390,1.04,0.16,-0.14,0,-2.02,1.95,-78.684,129.532,38.802,0,306
410,1.036,0.156,-0.124,2.71,-4.24,1.88,-78.992,127.785,38.802,0,324
432,1.04,0.16,-0.128,2.37,-1.81,0.7,-78.313,126.665,38.802,0,325
452,1.024,0.168,-0.132,0.97,0.56,0.21,-78.22,128.167,38.802,0,323
473,1.008,0.168,-0.116,0.56,-0.56,2.09,-78.556,124.633,38.923,0,328
494,1.012,0.164,-0.112,0.56,-1.39,2.43,-78.903,124.339,39.063,0,368
515,1.008,0.172,-0.12,-0.21,-0.21,1.53,-78.253,124.912,39.081,0,362
535,1.004,0.176,-0.116,-3.34,0.42,2.23,-78.149,123.398,38.835,0,215
557,1.008,0.18,-0.128,0,-2.85,1.74,-76.338,134.351,39.09,0,311
577,1.02,0.18,-0.144,1.04,-4.45,4.52,-78.807,113.06,39.029,0,320
598,1.048,0.188,-0.12,-5.63,0.28,3.55,-77.642,125.083,39.029,0,328
619,1.036,0.184,-0.136,-4.52,-0.35,3.06,-77.552,126.479,39.029,0,336
640,1.048,0.172,-0.12,-1.46,-2.99,4.1,-78.689,124.912,39.029,0,342
660,1.036,0.156,-0.144,-0.14,-1.53,2.78,-78.425,132.719,39.015,0,350
681,1.044,0.16,-0.12,-1.53,-0.63,2.78,-79.161,126.879,38.933,0,353
702,1.036,0.156,-0.128,-0.42,0.14,2.85,-78.984,129.379,38.907,0,363
722,1.032,0.156,-0.124,0,0.56,2.71,-79.077,128.49,38.788,0,368
744,1.032,0.164,-0.136,0.35,0.83,2.64,-78.309,128.167,38.855,0,344
764,1.032,0.156,-0.132,0.42,1.74,2.92,-78.522,127.981,38.671,0,320
785,1.02,0.16,-0.128,0.56,1.88,3.48,-78.653,127.102,38.671,0,309
806,1.028,0.168,-0.128,-0.07,2.09,3.27,-78.396,127.313,38.671,0,309
827,1.024,0.168,-0.144,1.81,2.64,3.13,-77.813,130.611,38.671,0,309
848,1.02,0.172,-0.128,1.32,2.23,3.48,-78.135,126.665,38.671,0,316
869,1.024,0.168,-0.148,1.25,1.53,3.97,-77.672,131.388,38.664,0,311
889,1.028,0.164,-0.128,1.18,1.25,3.41,-78.565,127.981,38.659,0,312
911,1.032,0.16,-0.136,0.49,1.67,3.27,-78.565,127.981,38.784,0,312
931,1.032,0.168,-0.132,-0.28,1.04,3.76,-77.972,126.879,38.854,0,307
952,1.032,0.172,-0.124,-0.97,1.39,3.48,-78.225,126.665,38.854,0,310
973,1.028,0.16,-0.124,-1.11,1.11,3.2,-78.866,127.785,38.854,0,313
994,1.024,0.164,-0.136,0.21,0.07,2.78,-78.252,129.677,38.854,0,317
1014,1.024,0.16,-0.14,1.04,0,2.64,-78.277,131.196,38.854,0,321
1036,1.024,0.16,-0.144,0.56,0.35,2.5,-78.134,131.997,38.854,0,326
1056,1.024,0.152,-0.14,0.42,0.56,2.64,-78.596,132.656,38.794,0,317
1078,1.024,0.16,-0.144,0.9,0.07,3.2,-78.134,131.997,38.765,0,309
1098,1.024,0.16,-0.144,0.7,0.35,2.99,-78.163,129.677,38.814,0,306
1119,1.02,0.156,-0.128,1.25,0,2.57,-78.641,129.532,38.565,0,301
1140,1.028,0.168,-0.132,0.63,1.39,2.85,-78.309,128.167,38.705,0,296
1161,1.032,0.164,-0.128,1.39,1.04,4.1,-78.608,127.981,38.705,0,318
1181,1.028,0.168,-0.136,0.97,0.7,3.76,-78.132,129,38.705,0,324
1203,1.028,0.164,-0.132,0.77,1.11,3.83,-78.432,128.839,38.705,0,320
1223,1.028,0.164,-0.14,-0.28,0.97,3.9,-78.159,130.496,38.705,0,327
1244,1.028,0.16,-0.148,-0.63,0.7,4.52,-78.035,132.779,38.538,0,345
1265,1.02,0.156,-0.14,0.56,-0.07,4.03,-78.58,131.091,38.604,0,420
1286,1.028,0.156,-0.132,1.11,-0.83,0.77,-78.996,126.879,38.686,0,203
1307,1.028,0.16,-0.128,0.21,-0.49,1.6,-77.588,133.578,38.565,0,322
1328,1.02,0.164,-0.136,2.23,-1.6,4.8,-78.208,129.677,38.671,0,317
1348,1.04,0.156,-0.128,-1.04,0.63,2.71,-79.025,129.379,38.671,0,327
1370,1.024,0.16,-0.16,-3.2,2.5,2.23,-77.545,135.01,38.671,0,337
1390,1.024,0.16,-0.132,1.18,-1.88,4.1,-78.555,129.532,38.671,0,349
1412,1.028,0.148,-0.152,3.13,-2.3,2.16,-78.345,135.774,38.671,0,359
1432,1.028,0.152,-0.144,1.81,-1.25,1.39,-78.28,133.502,38.545,0,359
1453,1.028,0.164,-0.156,0.77,0.9,2.57,-77.935,133.541,38.458,0,369
1474,1.032,0.16,-0.156,1.74,1.74,2.71,-77.935,133.541,38.437,0,374
1495,1.04,0.14,-0.18,2.3,2.5,1.81,-77.639,142.135,38.53,0,362
1515,1.048,0.14,-0.188,3.9,1.81,-0.83,-77.398,143.336,38.404,0,326
1537,1.052,0.136,-0.188,3.34,3.83,-0.83,-77.567,144.128,38.404,0,315
1557,1.06,0.148,-0.196,0.49,8.14,0.9,-76.96,142.954,38.404,0,306
1579,1.044,0.128,-0.2,2.57,12.38,1.11,-77.192,147.392,38.404,0,328
1599,1.032,0.144,-0.148,4.38,11.9,1.46,-78.691,135.795,38.404,0,330
1619,1.02,0.152,-0.16,3.97,9.74,1.67,-78.13,128.167,38.517,0,329
1641,1.004,0.18,-0.116,-0.07,8,2.16,-77.655,123.699,38.939,0,337
1661,0.984,0.156,-0.12,-1.11,7.17,1.88,-78.695,127.578,38.806,0,334
1683,1,0.144,-0.096,0.35,2.85,-0.14,-80.187,123.699,38.834,0,347
1703,1.04,0.172,-0.12,-0.7,1.39,-1.74,-78.605,124.912,38.843,0,381
1724,1.048,0.176,-0.12,-1.04,-0.49,-3.62,-78.516,124.296,38.843,0,390
1745,1.036,0.14,-0.1,2.99,-5.84,-5.43,-80.577,125.547,38.843,0,343
1766,1.02,0.132,-0.104,8.9,-9.39,-5.01,-80.65,128.243,38.843,0,322
1787,0.988,0.18,-0.12,8.77,-9.32,-4.59,-77.368,120.793,38.843,0,333
1808,0.972,0.212,-0.124,6.26,-6.89,-4.03,-74.496,121.836,38.895,0,312
1828,0.988,0.236,-0.144,6.89,-4.45,-3.2,-74.536,120.265,39.006,0,299
1850,1.02,0.236,-0.148,4.1,-2.64,-2.57,-74.73,122.102,39.667,0,291
1870,1.028,0.212,-0.148,4.94,-0.21,-4.31,-75.888,124.929,39.524,0,286
1891,1.032,0.184,-0.148,6.26,0.07,-8.83,-77.118,128.821,39.54,0,283
1912,1.032,0.188,-0.156,7.86,0.28,-11.97,-76.688,129.695,39.554,0,293
1933,1.032,0.216,-0.16,9.32,1.95,-12.8,-75.406,126.538,39.554,0,301
1954,1.028,0.212,-0.168,7.51,4.1,-12.17,-75.318,128.405,39.554,0,305
1975,1.032,0.2,-0.156,8.63,3.76,-9.95,-76.518,127.066,39.554,0,314
1996,1.012,0.204,-0.152,12.94,2.92,-5.01,-74.889,127.217,39.822,0,297
2017,0.996,0.248,-0.18,11.9,5.29,1.6,-72.904,125.982,40.654,0,282
2037,1.016,0.244,-0.176,10.64,7.17,3.55,-73.511,125.813,40.875,0,277
2059,1.016,0.216,-0.14,12.17,4.52,0.97,-75.789,122.958,40.832,0,456
2079,1.008,0.208,-0.156,10.43,4.52,-0.9,-75.542,126.879,40.898,0,146
2101,1.012,0.208,-0.136,10.43,4.38,2.78,-76.209,123.188,40.923,0,255
2121,1.028,0.232,-0.192,18.64,3.13,6.89,-73.921,125.637,40.923,0,289
2143,1.028,0.26,-0.12,6.26,6.82,10.99,-73.519,114.889,40.923,0,314
2163,1.024,0.272,-0.16,-4.03,12.66,7.65,-72.211,125.059,40.923,0,323
2185,1,0.24,-0.18,-5.84,8.42,5.63,-73.306,126.879,40.938,0,327
2205,1.02,0.204,-0.18,-3.83,1.81,2.85,-75.071,131.433,40.654,0,322
2226,1.032,0.204,-0.168,-5.7,1.11,-1.53,-75.642,129.482,40.762,0,340
2247,1.016,0.208,-0.144,-11.55,2.57,-1.67,-76.023,124.704,40.445,0,355
2268,1.02,0.216,-0.132,-10.23,3.27,-2.02,-76.068,121.439,40.63,0,368
2289,1.036,0.248,-0.12,-9.46,3.97,0.07,-75.263,113.971,40.607,0,375
2310,1.064,0.256,-0.12,-11.13,6.61,0.07,-75.344,113.638,40.607,1,351
2330,1.064,0.256,-0.116,-13.7,7.65,-0.14,-75.638,113.541,40.607,1,315
2352,1.056,0.24,-0.092,-12.8,6.19,0.07,-76.326,110.982,40.607,1,298
2372,1.048,0.228,-0.108,-8.42,7.79,-3.34,-76.47,115.355,40.607,1,299
2394,1.028,0.22,-0.06,-6.82,7.44,-4.17,-77.499,105.263,40.816,1,295
2414,1.02,0.188,-0.108,-4.8,8.14,-1.46,-78.005,119.885,40.825,1,306
2436,1.012,0.168,-0.072,-2.5,7.03,0.7,-79.768,113.207,40.908,1,312
2456,1.024,0.176,-0.072,-1.32,5.91,1.74,-78.126,111.81,40.886,1,312
2477,1.032,0.216,-0.076,-1.46,6.68,7.58,-76.531,108.734,40.896,1,315
2498,1.048,0.248,-0.088,-1.67,9.39,10.37,-76.289,108.161,40.896,1,309
2519,1.036,0.232,-0.088,-0.7,9.88,9.25,-76.537,110.78,40.896,1,304
2540,1.036,0.212,-0.056,6.47,8.07,6.89,-78.055,104.804,40.896,1,296
2561,1.028,0.188,-0.068,8.35,7.51,6.61,-79.001,109.893,40.896,1,294
2581,1.02,0.204,-0.084,8.83,6.96,6.89,-77.801,112.388,40.605,1,292
2603,1.04,0.228,-0.088,8.21,5.15,7.79,-76.781,111.113,40.735,1,287
2623,1.06,0.252,-0.084,4.38,7.17,7.72,-75.924,104.044,40.76,1,276
2644,1.048,0.252,-0.072,6.47,6.89,3.97,-76.272,103.608,40.595,1,283
2665,1.036,0.236,-0.06,12.31,3.55,-0.49,-77.237,103.807,40.544,1,317
2685,1.048,0.212,-0.072,8.49,6.19,-4.66,-77.946,108.767,40.544,1,320
2707,1.024,0.204,-0.084,5.77,6.47,-1.39,-77.847,112.388,40.544,1,311
2727,1.012,0.212,-0.088,3.48,7.37,4.59,-77.226,112.551,40.544,1,313
2749,1.012,0.224,-0.088,1.74,9.32,5.91,-76.629,111.456,40.544,1,335
2769,1.008,0.228,-0.088,5.57,6.4,3.83,-76.377,111.113,40.857,1,465
2790,1.008,0.224,-0.08,5.15,5.98,2.71,-76.931,106.895,41.06,1,241
2811,1.016,0.228,-0.084,2.23,5.7,2.85,-76.584,114.066,41.026,1,362
2832,1.016,0.208,-0.14,5.7,3.76,3.69,-76.756,110.564,41.055,1,338
2853,1.028,0.236,-0.072,-0.56,6.19,3.06,-76.509,106.974,40.918,1,340
2874,1.02,0.228,-0.092,-3.41,6.33,2.71,-76.454,111.983,40.918,1,349
2894,1.028,0.22,-0.096,1.39,3.97,2.71,-76.863,113.583,40.918,1,352
2916,1.036,0.228,-0.088,0,5.36,1.67,-76.732,111.113,40.918,1,355
2936,1.032,0.216,-0.096,-0.63,5.36,3.06,-77.105,113.971,40.918,1,371
2958,1.028,0.224,-0.06,-1.6,6.82,3.34,-77.875,109.102,41.099,1,371
2978,1.02,0.212,-0.072,-2.78,7.1,4.59,-77.236,107.184,41.138,1,366
2999,1.012,0.22,-0.076,-3.97,7.17,4.87,-77.232,110.331,40.986,1,351
3020,1.028,0.22,-0.072,-4.31,7.37,3.83,-77.316,108.13,40.986,1,317
3041,1.028,0.232,-0.06,-5.08,8.07,3.2,-76.884,104.508,41.059,1,281
3062,1.024,0.228,-0.056,-5.57,8.56,3.62,-77.092,103.807,41.059,1,277
3083,1.024,0.208,-0.08,-4.17,8.49,4.38,-77.728,111.046,41.059,1,278
3103,1.02,0.216,-0.02,-6.47,10.37,5.22,-78,95.297,41.059,1,272
3125,1.016,0.196,-0.076,-4.8,10.99,4.8,-78.316,111.202,41.059,1,276
3145,1.024,0.2,-0.048,-4.31,8.83,5.43,-78.185,103.002,40.946,1,278
3167,1.02,0.22,-0.056,-3.97,9.32,5.08,-77.827,104.804,40.74,1,275
3187,1.016,0.22,-0.056,-4.17,9.25,5.29,-77.478,100.132,40.949,1,279
3208,1.028,0.212,-0.04,-3.13,9.6,4.38,-78.153,100.692,40.891,1,285
3229,1.024,0.208,-0.028,-2.37,9.46,3.27,-78.423,97.674,40.788,1,281
3250,1.024,0.208,-0.02,-2.16,9.11,3.48,-78.472,95.499,40.788,1,281
3271,1.028,0.212,-0.024,-1.95,9.81,4.17,-78.281,96.466,40.788,1,298
3292,1.024,0.216,-0.02,-3.13,9.53,4.24,-78.045,95.297,40.788,1,299
3312,1.012,0.204,-0.02,-2.43,9.25,3.83,-78.677,97.977,40.788,1,310
3334,1.008,0.204,-0.02,-0.35,8.07,3.41,-78.807,93.441,40.662,1,298
3354,1.012,0.208,-0.012,-0.97,8.14,2.99,-78.277,94.323,40.728,1,284
3375,1.012,0.2,-0.008,-1.04,7.93,2.64,-78.818,92.297,40.588,1,273
3396,1,0.2,-0.012,-2.09,8.28,3.76,-78.676,93.441,40.72,1,274
3417,1.012,0.208,-0.012,-1.6,7.93,4.17,-78.373,93.309,40.862,1,350
3438,1.024,0.216,0,-0.97,8.77,3.48,-78.095,90.007,40.862,1,229
3459,1.016,0.208,0,-0.49,8.56,2.16,-78.436,90.007,40.862,1,283
3479,1.012,0.192,-0.044,4.38,2.71,2.23,-78.991,102.915,40.862,1,269
3500,1.02,0.22,0.072,-1.32,5.5,1.95,-78.505,86.705,40.862,1,285
3521,1.02,0.212,-0.032,-4.38,5.98,3.34,-78.609,90.007,40.685,1,289
3542,1,0.196,0.012,2.3,2.43,3.83,-78.473,88.883,40.853,1,298
3562,1.02,0.212,0.004,1.11,3.83,2.99,-78.262,88.926,40.885,1,303
3584,1.028,0.204,0.008,1.46,5.08,1.6,-78.773,87.761,40.737,1,302
3604,1.02,0.2,0.012,0.63,4.17,2.57,-78.893,86.573,40.89,1,306
3624,1.008,0.208,0.016,-0.49,4.45,3.97,-78.313,85.608,40.89,1,326
3646,1.02,0.22,0.012,0.14,5.43,3.41,-77.817,86.884,40.89,1,319
3666,1.024,0.216,0.016,-0.35,4.1,2.57,-78.447,85.608,40.89,1,319
3688,1.024,0.196,0.02,-0.21,2.99,2.23,-78.772,84.296,40.89,1,301
3708,1.004,0.192,0.012,0,2.92,3.2,-78.467,87.761,40.84,1,303
3729,1.004,0.2,-0.016,1.88,2.92,3.62,-78.705,94.581,41.044,1,309
3750,1.012,0.2,0.048,-2.16,1.11,3.34,-78.517,76.51,40.889,1,296
3771,1.012,0.192,0.008,-1.18,0.56,3.27,-79.254,87.621,40.864,1,304
3791,1.024,0.212,0.052,-0.9,-1.39,4.38,-77.972,76.224,40.805,1,293
3813,1.012,0.224,0,-0.63,1.25,2.85,-77.525,90.007,40.855,1,306
3833,1.028,0.212,0.04,-0.77,3.27,1.67,-78.153,79.321,40.855,1,300
3854,1.028,0.204,0,-3.27,3.34,2.57,-78.867,88.861,40.855,1,303
3875,1.004,0.196,0.024,-1.53,2.16,3.06,-78.617,83.163,40.855,1,315
3896,1.004,0.192,0,-0.9,3.9,1.67,-78.041,87.885,40.904,1,327
3916,1.02,0.212,0,-4.1,3.76,1.88,-78.264,90.007,40.794,1,336
3937,0.992,0.184,0.012,-2.16,3.34,2.99,-79.476,86.275,40.754,1,332
3958,0.968,0.172,0.004,-2.09,4.38,2.92,-79.928,88.674,41.024,1,336
3979,1.012,0.2,0.016,0,3.41,3.69,-78.792,85.432,40.799,1,318
3999,0.988,0.228,0,0.14,5.43,5.08,-77.011,90.007,40.858,1,328
4021,0.96,0.168,0.016,3.2,5.15,1.39,-80.036,84.566,40.858,1,348
4041,0.98,0.168,0.012,3.27,3.69,-0.21,-78.896,86.503,40.858,1,425
4062,1.008,0.2,-0.008,1.88,3.34,0.97,-78.705,96.85,40.858,1,326
4083,0.972,0.196,-0.012,2.71,2.43,2.3,-78.411,88.813,40.858,1,406
4104,0.892,0.176,-0.08,3.34,1.74,5.91,-77.777,114.452,40.928,1,369
4124,0.928,0.164,0.052,-2.85,-4.45,8.35,-79.503,72.413,41.002,1,369
4146,0.944,0.156,0.036,-2.43,-7.72,6.68,-80.38,77.011,40.744,1,369
4166,0.916,0.168,0.024,-0.97,-12.45,5.57,-79.51,81.876,40.754,0,353
4188,0.932,0.212,0.008,2.02,-15.44,5.15,-77.182,87.845,40.652,0,356
4208,0.996,0.24,0.012,3.2,-16.97,4.1,-76.636,86.192,40.652,0,365
4229,1.012,0.236,0.008,0.14,-16.56,2.99,-77.475,88.984,40.652,0,378
4250,1,0.212,0.016,-1.04,-18.43,0.56,-78.055,83.547,40.652,0,375
4271,1.024,0.212,0.016,-3.27,-18.85,-1.81,-78.277,85.69,40.652,0,378
4292,1.052,0.224,0.008,-1.53,-18.3,-1.88,-77.978,87.961,40.331,0,367
4313,1.06,0.224,0.012,-0.97,-16.14,-0.7,-78.057,86.94,40.353,0,347
4333,1.036,0.216,-0.04,-3.97,-10.71,0.07,-78.034,100.499,40.55,0,338
4355,1.024,0.212,0.004,-4.31,-8.83,-0.42,-78.307,88.926,40.33,0,329
4375,1.06,0.2,-0.016,2.71,-11.97,-1.11,-79.056,88.926,40.401,0,324
4397,1.1,0.244,-0.04,-4.17,-9.88,-1.04,-76.549,107.046,40.401,0,331
4417,1.044,0.26,-0.068,-8.07,-7.3,2.09,-75.498,106.543,40.401,0,338
4439,1.036,0.24,-0.108,-3.97,-2.37,1.25,-75.752,114.236,40.401,0,347
4459,1.044,0.22,-0.1,-2.57,-4.17,-0.49,-76.973,114.452,40.401,0,357
4480,1.032,0.172,-0.076,-1.67,-3.9,-2.99,-79.679,113.847,40.526,0,361
4501,1.012,0.188,-0.08,-4.73,-4.59,-3.48,-78.592,113.06,40.647,0,358
4521,1.016,0.196,-0.06,-0.83,-6.26,0.07,-78.599,107.028,40.704,0,365
4543,1.016,0.224,-0.08,-1.46,-4.1,4.17,-75.739,112.972,40.743,0,356
4563,0.996,0.22,-0.116,-2.78,0.35,3.27,-77.938,118.018,40.816,0,358
4584,0.984,0.152,-0.08,5.01,0.63,-2.02,-81.047,111.259,40.816,0,347
4605,1.004,0.184,-0.092,3.62,1.88,-3.83,-78.426,116.574,40.816,0,348
4626,1.064,0.236,-0.044,1.39,-1.11,-0.97,-77.291,100.568,40.816,0,350
4647,1.088,0.236,-0.068,3.69,-2.37,1.53,-77.285,106.081,40.816,0,407
4668,1.052,0.212,-0.06,5.08,0.83,3.13,-78.177,105.81,41.092,0,321
4688,1.024,0.204,-0.092,6.89,-0.9,5.77,-77.678,114.283,41.029,0,289
4710,1.028,0.224,-0.06,8.35,-3.34,8.49,-75.816,113.79,41.092,0,331
4730,1.032,0.248,-0.136,4.45,3.41,6.05,-75.766,102.162,41.161,0,333
4752,1.04,0.244,-0.056,4.94,5.36,4.94,-77.471,110.331,41.19,0,326
4772,1.028,0.204,-0.104,10.23,-0.35,6.89,-77.448,117.021,41.19,0,324
4794,1.06,0.216,-0.032,13.01,1.39,4.8,-78.366,98.434,41.19,0,331
4814,1.02,0.196,-0.036,16.49,2.99,4.1,-78.951,100.415,41.19,0,345
4835,1.02,0.184,-0.056,16.63,2.57,6.75,-79.327,106.935,41.19,0,349
4856,1.044,0.224,-0.064,11.41,5.01,10.23,-77.427,105.953,41.01,0,365
4877,1.02,0.252,-0.076,8.35,5.15,10.3,-75.186,108.443,40.847,0,354
4898,1.008,0.232,-0.084,7.3,6.75,10.99,-76.102,109.6,40.879,0,334
4919,1.02,0.232,-0.088,6.96,4.31,10.02,-76.112,111.306,40.641,0,312
4940,1.028,0.24,-0.084,3.06,3.41,8.7,-76.112,109.298,40.64,0,287
4961,1.02,0.22,-0.08,3.41,4.87,7.23,-77.08,109.991,40.64,0,286
4982,1.02,0.22,-0.064,3.9,3.41,7.17,-77.346,106.228,40.64,0,285
5003,1.036,0.22,-0.084,0.97,5.91,6.61,-77.2,110.906,40.64,0,290
5023,1.028,0.208,-0.08,-0.56,4.66,7.79,-77.774,111.046,40.64,0,294
5045,1.024,0.2,-0.064,-3.34,4.94,8.49,-78.281,112.212,40.425,0,291
5065,1.02,0.2,-0.08,-4.73,4.66,9.74,-78.74,108.443,40.172,0,287
5087,1.016,0.184,-0.064,0.63,4.03,10.09,-79.303,108.068,40.312,0,287
5107,1.008,0.176,-0.068,0.07,3.13,10.16,-79.404,111.133,40.235,0,275
5128,1.016,0.176,-0.06,-0.56,2.92,9.95,-79.634,108.833,40.056,0,260
5149,1.008,0.168,-0.064,4.52,-0.14,10.02,-79.893,110.863,40.056,0,250
5170,1.036,0.176,-0.052,4.94,1.18,8.97,-79.961,106.468,40.056,0,251
5191,1.04,0.176,-0.036,5.29,0.28,9.74,-80.206,101.568,40.056,0,248
5212,1.032,0.18,-0.068,0.14,1.81,9.46,-79.444,110.704,40.056,0,273
5232,1.04,0.188,-0.08,-1.95,3.55,8.9,-78.355,112.791,39.815,0,281
5254,1.056,0.208,-0.084,-2.09,5.77,7.23,-78.341,108.112,39.551,0,284
5274,1.036,0.188,-0.076,-3.97,5.29,3.27,-78.931,112.02,39.156,0,285
5296,1.032,0.156,-0.076,-6.82,5.57,0.42,-80.461,115.983,39.22,0,340
5316,1.032,0.136,-0.056,-7.03,4.17,-1.11,-81.895,112.388,39.206,0,291
5338,1.016,0.14,-0.032,-4.38,2.16,-0.77,-81.961,102.883,39.22,0,209
5358,1.04,0.152,-0.052,-5.29,2.85,-1.25,-81.225,108.894,39.22,0,303
5379,1.02,0.152,-0.064,-4.45,1.53,1.95,-80.821,112.842,39.22,0,309
5400,1.024,0.156,-0.044,-5.5,3.27,2.92,-80.906,105.759,39.22,0,317
5421,1.004,0.164,-0.06,-7.03,2.92,4.1,-80.333,113.034,39.233,0,332
5442,1.028,0.164,-0.044,-2.92,0.83,5.36,-80.995,104.044,39.238,0,338
5463,1.036,0.156,-0.068,-2.99,2.99,3.62,-80.678,113.561,39.173,0,340
5483,1.04,0.168,-0.02,-2.37,3.13,3.41,-80.766,96.796,39.255,0,348
5505,1.044,0.176,-0.028,-2.43,2.92,1.81,-80.319,99.047,39.161,0,348
5525,1.048,0.176,-0.032,-2.78,1.04,2.43,-80.319,100.312,39.223,0,353
5547,1.044,0.172,-0.064,1.6,-1.25,2.23,-80.036,110.418,39.223,0,343
5567,1.028,0.168,-0.056,2.71,-1.11,1.81,-79.884,106.468,39.223,0,321
5587,1.028,0.18,-0.052,1.53,-0.14,3.48,-79.843,101.317,39.223,0,313
5609,1.016,0.172,-0.044,1.88,-0.97,1.39,-80.08,108.443,39.237,0,329
5629,1.02,0.172,-0.036,3.2,-1.11,1.6,-80.231,101.829,39.037,0,330
5650,1.028,0.168,-0.072,1.81,2.3,3.2,-79.924,113.207,39.059,0,326
5671,1.016,0.164,-0.056,3.41,0.21,3.41,-80.326,108.861,39.297,0,326
5692,1.024,0.164,-0.044,3.69,0.28,3.13,-80.591,105.026,39.192,0,321
5713,1.028,0.176,-0.036,2.02,-0.14,4.8,-80.093,101.568,39.277,0,322
5734,1.032,0.18,-0.052,2.5,-0.83,5.01,-79.821,107.658,39.277,0,323
5754,1.028,0.168,-0.056,3.41,-1.88,4.8,-80.335,107.206,39.277,0,325
5776,1.032,0.168,-0.056,4.03,-2.3,4.8,-79.981,105.263,39.277,0,328
5796,1.028,0.176,-0.072,2.43,-1.04,4.59,-79.526,112.257,39.277,0,340
5818,1.036,0.164,-0.052,3.2,-0.7,4.52,-80.577,107.6,38.907,0,344
5838,1.032,0.164,-0.06,3.2,-0.9,5.22,-80.402,110.103,38.947,0,341
5859,1.024,0.172,-0.068,3.76,-1.39,5.22,-79.768,111.58,38.869,0,341
5880,1.024,0.176,-0.072,3.55,-1.32,6.96,-79.486,112.257,38.963,0,325
5901,1.028,0.172,-0.06,3.48,-0.9,5.43,-79.922,106.468,38.983,0,341
5922,1.036,0.176,-0.06,1.67,0.77,4.1,-79.367,111.81,38.983,0,334
5943,1.028,0.172,-0.076,0.56,1.18,4.24,-79.924,113.207,38.983,0,336
5963,1.028,0.164,-0.072,1.67,0.97,4.94,-80.122,113.711,38.983,0,335
5985,1.032,0.16,-0.064,1.04,0.83,4.45,-80.526,111.81,38.983,0,456
6005,1.024,0.156,-0.06,1.11,0.7,4.52,-80.736,111.046,38.805,0,288
6027,1.028,0.168,-0.056,-1.46,-0.21,4.73,-80.232,108.443,38.753,0,291
6047,1.028,0.144,-0.096,5.77,-3.55,1.25,-80.45,123.699,38.726,0,332
6068,1.024,0.168,-0.064,0.97,-2.3,2.99,-80.048,110.863,38.664,0,333
6089,1.044,0.168,-0.064,-2.92,3.27,3.69,-80.625,114.784,38.609,0,335
6110,1.028,0.156,-0.088,1.74,1.6,3.34,-80.328,117.158,38.609,0,342
6131,1.032,0.156,-0.064,5.08,-0.7,4.17,-80.806,111.046,38.609,0,355
6152,1.036,0.152,-0.076,3.13,0.21,3.9,-80.69,116.574,38.609,0,368
6172,1.028,0.156,-0.072,2.3,0.83,4.59,-80.518,114.784,38.609,0,394
6194,1.028,0.152,-0.076,2.3,1.25,4.45,-80.619,116.574,38.548,0,409
6214,1.024,0.152,-0.08,2.71,0.35,3.76,-80.484,117.767,38.561,0,410
6236,1.02,0.16,-0.076,2.02,0.7,4.38,-80.154,115.416,38.419,0,384
6256,1.02,0.152,-0.076,2.02,1.39,4.45,-80.606,113.561,38.548,0,340
6277,1.032,0.16,-0.064,-0.7,2.09,4.38,-80.362,111.326,38.495,0,312
6298,1.032,0.156,-0.076,0.97,2.3,3.2,-80.417,118.935,38.495,0,309
6319,1.024,0.152,-0.056,3.27,-0.07,1.11,-81.017,110.233,38.495,0,313
6340,1.028,0.164,-0.092,3.62,0.35,0.42,-79.64,119.3,38.495,0,320
6361,1.028,0.156,-0.064,0.28,1.04,3.13,-80.691,112.314,38.495,0,333
6381,1.032,0.144,-0.084,2.02,0.77,4.8,-80.83,120.265,38.446,0,333
6403,1.028,0.148,-0.08,0.9,-0.28,4.52,-80.712,118.402,38.474,0,333
6423,1.028,0.156,-0.084,-0.49,0.14,4.87,-80.38,118.935,38.46,0,333
6445,1.028,0.156,-0.076,-0.28,0.77,4.73,-80.84,114.111,38.366,0,326
6465,1.028,0.16,-0.072,0.14,1.25,3.55,-80.394,114.236,38.42,0,311
6486,1.032,0.156,-0.08,-0.07,1.53,2.78,-80.365,117.158,38.42,0,314
6507,1.036,0.148,-0.072,0.49,0.7,2.99,-80.979,115.951,38.42,0,320
6528,1.032,0.148,-0.072,0.21,0.83,3.27,-80.945,115.951,38.42,0,324
6548,1.024,0.148,-0.08,0.21,0.7,3.41,-80.676,118.402,38.42,0,334
6569,1.024,0.148,-0.084,1.04,-0.83,0.97,-80.57,119.587,38.278,0,336
6590,1.028,0.16,-0.068,1.67,-1.04,-0.9,-80.172,116.574,38.353,0,338
6611,1.028,0.16,-0.088,-1.6,1.53,1.67,-80.365,117.158,38.366,0,331
6632,1.028,0.148,-0.084,-0.42,1.39,4.52,-80.52,117.767,38.319,0,336
6652,1.036,0.152,-0.076,-0.28,1.18,4.24,-80.69,116.574,38.366,0,337
6674,1.032,0.16,-0.076,-0.63,1.11,3.76,-80.267,115.416,38.366,0,322
6694,1.028,0.164,-0.088,0.49,0.28,-0.28,-79.744,118.226,38.366,0,325
6716,1.036,0.152,-0.084,-0.97,0.07,-0.14,-80.49,118.935,38.366,0,334
6736,1.02,0.152,-0.092,-0.35,-0.14,3.06,-80.125,121.194,38.366,0,489
6758,1.024,0.14,-0.08,-0.42,0.21,3.97,-81.057,119.754,38.372,0,185
6778,1.024,0.16,-0.076,-0.7,-0.07,2.85,-80.165,125.847,38.372,0,341
6799,1.016,0.14,-0.12,2.5,-1.74,3.06,-80.306,118.935,38.412,0,338
6820,1.032,0.14,-0.08,1.46,-2.92,-0.7,-81.126,119.754,38.535,0,338
6841,1.032,0.164,-0.1,-2.37,1.46,0,-79.462,121.382,38.44,0,335
6861,1.028,0.164,-0.092,0.83,-0.83,4.31,-79.64,119.3,38.44,0,345
6883,1.028,0.156,-0.084,3.55,-1.95,3.76,-80.227,118.309,38.44,0,356
6903,1.04,0.16,-0.084,3.83,-1.81,-0.14,-80.149,117.708,38.44,0,372
6925,1.044,0.172,-0.092,1.39,0.21,0.42,-79.423,118.15,38.44,0,390
6945,1.028,0.16,-0.088,2.92,0.28,1.6,-80.264,118.309,38.507,0,412
6966,1.028,0.156,-0.1,2.57,1.04,1.81,-79.941,121.616,38.325,0,406
6987,1.028,0.156,-0.096,3.97,-0.42,0.49,-79.934,118.82,38.418,1,372
7008,1.028,0.152,-0.084,3.9,-0.35,0.14,-80.417,118.935,38.479,1,333
7029,1.048,0.168,-0.076,2.5,1.67,0.83,-80.027,114.35,38.674,1,304
7050,1.04,0.164,-0.1,4.87,2.64,0.97,-79.542,121.382,38.695,1,305
7070,1.036,0.172,-0.064,5.43,2.85,-0.07,-79.961,110.418,38.695,1,311
7092,1.032,0.176,-0.096,3.41,3.62,-0.28,-79.012,118.619,38.695,1,317
7112,1.032,0.172,-0.08,3.48,3.34,0.21,-79.691,116.574,38.695,1,321
7134,1.032,0.164,-0.092,3.48,3.13,-0.42,-80.074,117.708,38.723,1,330
7154,1.028,0.168,-0.088,0.21,3.2,-0.49,-79.072,117.606,38.82,1,326
7175,1.024,0.164,-0.096,2.3,2.43,0.14,-79.493,120.352,38.816,1,326
7196,1.024,0.168,-0.096,3.41,0.83,-0.07,-79.305,119.754,38.963,1,319
7217,1.028,0.172,-0.084,3.2,-0.83,0.28,-79.458,116.038,38.951,1,305
7237,1.036,0.172,-0.08,4.38,-3.27,0.63,-79.63,114.952,38.916,1,305
7259,1.028,0.168,-0.1,5.57,-3.13,0.9,-79.238,120.772,38.916,1,309
7279,1.036,0.184,-0.092,3.83,-3.41,1.53,-79.233,115.025,38.916,1,312
7301,1.032,0.184,-0.092,1.67,-2.09,1.11,-78.866,118.081,38.916,1,317
7321,1.028,0.184,-0.104,1.46,-2.16,1.46,-78.971,118.619,38.902,1,334
7342,1.032,0.176,-0.08,2.99,-2.37,1.18,-79.395,114.452,39.128,1,323
7363,1.032,0.176,-0.108,1.67,-2.3,0.07,-78.691,121.544,39.247,1,330
7384,1.028,0.172,-0.084,1.67,-2.37,0.14,-79.458,116.038,39.188,1,332
7405,1.04,0.18,-0.088,1.6,-1.11,-0.42,-79.101,116.062,39.2,1,314
7426,1.036,0.184,-0.124,-0.83,0.49,-1.18,-77.917,123.986,39.322,1,317
7446,1.028,0.18,-0.112,0.21,-0.77,-0.14,-78.353,121.9,39.322,1,338
7468,1.024,0.18,-0.096,0.97,-1.25,0.56,-78.388,119.485,39.322,1,446
7488,1.04,0.192,-0.088,-1.39,0.28,0.07,-78.818,111.604,39.322,1,187
7510,1.032,0.188,-0.088,-0.77,-0.14,0.35,-78.462,123.398,39.322,1,345
7530,1.016,0.18,-0.124,1.18,-1.18,2.37,-77.864,124.572,39.786,1,338
7550,1.032,0.176,-0.1,0.42,0.7,2.09,-78.908,119.613,39.673,1,341
7572,1.02,0.196,-0.116,-3.27,3.2,2.3,-77.419,120.627,39.793,1,347
7592,1.024,0.184,-0.12,2.85,0.35,3.06,-77.898,123.12,39.521,1,343
7614,1.032,0.184,-0.112,4.45,-0.42,1.53,-78.216,121.338,39.608,1,344
7634,1.024,0.184,-0.116,2.43,1.11,1.04,-77.678,118.864,39.608,1,356
7655,1.032,0.192,-0.096,2.43,1.81,2.37,-78.18,112.791,39.608,1,373
7676,1.032,0.196,-0.084,2.43,2.85,2.02,-77.924,117.039,39.608,1,385
7697,1.028,0.196,-0.116,1.46,3.69,2.5,-77.514,120.627,39.608,1,381
7717,1.02,0.192,-0.108,3.41,1.74,1.95,-77.819,119.367,39.867,1,345
7739,1.02,0.188,-0.108,2.23,2.3,1.74,-78.005,119.885,39.884,1,317
7759,1.028,0.184,-0.12,0.83,3.34,1.95,-77.944,123.12,39.733,1,306
7781,1.024,0.184,-0.132,2.5,3.55,2.16,-77.536,125.665,40.058,1,296
7801,1.032,0.196,-0.08,0.28,4.17,2.37,-77.649,123.417,40.095,1,295
7822,1.024,0.184,-0.12,0.9,2.92,2.64,-78.679,114.084,40.095,1,299
7843,1.032,0.18,-0.088,1.25,2.92,2.78,-78.347,118.018,40.095,1,303
7864,1.032,0.196,-0.112,-1.11,3.2,3.48,-77.667,119.754,40.095,1,308
7885,1.028,0.192,-0.108,-1.04,3.2,3.06,-77.911,119.367,40.095,1,320
7906,1.028,0.18,-0.108,-0.21,3.62,2.99,-78.465,120.973,39.881,1,321
7926,1.024,0.184,-0.104,-0.9,4.59,3.06,-78.343,119.485,40.033,1,320
7948,1.028,0.18,-0.108,-0.49,3.9,3.62,-78.465,120.973,39.957,1,318
7968,1.028,0.188,-0.1,-1.81,4.1,4.17,-78.065,116.104,39.96,1,313
7989,1.032,0.196,-0.096,-1.25,4.38,3.55,-77.667,119.754,40.016,1,309
8010,1.028,0.2,-0.096,-1.46,4.38,3.34,-77.924,117.039,40.016,1,309
8031,1.036,0.196,-0.092,-2.09,4.38,2.78,-78.201,115.153,40.016,1,325
8052,1.032,0.188,-0.092,-2.3,4.8,2.78,-78.541,116.084,40.016,1,325
8073,1.024,0.184,-0.096,-2.64,4.66,2.85,-78.549,117.561,40.016,1,324
8094,1.024,0.184,-0.108,-3.97,5.57,3.69,-78.236,120.42,39.892,1,326
8115,1.02,0.18,-0.096,-2.92,4.87,3.76,-78.696,118.081,39.937,1,355
8135,1.02,0.172,-0.088,-1.67,4.73,3.62,-79.28,117.104,39.985,1,384
8157,1.024,0.18,-0.08,-2.71,5.63,2.92,-78.402,117.059,39.985,1,223
8177,1.028,0.188,-0.092,-2.5,3.69,3.34,-78.309,121.9,39.965,1,322
8198,1.012,0.164,-0.144,0.49,-1.18,5.7,-79.663,107.658,39.965,1,308
8219,1.028,0.188,-0.104,-5.77,2.5,3.55,-78.201,118.96,39.965,1,315
8240,1.016,0.188,-0.104,-5.77,1.74,4.45,-78.066,118.96,39.965,1,322
8261,1.024,0.168,-0.084,-0.21,-0.63,5.22,-79.612,116.574,39.965,1,335
8282,1.04,0.172,-0.108,-0.7,1.25,3.62,-78.956,122.134,39.757,1,341
8302,1.028,0.18,-0.092,-1.67,2.02,4.38,-78.881,117.081,39.968,1,345
8324,1.028,0.188,-0.08,-2.02,1.81,5.7,-78.527,113.638,39.787,1,348
8344,1.028,0.192,-0.084,-3.69,1.46,5.5,-78.722,114.084,39.702,1,349
8366,1.028,0.196,-0.084,-3.9,0.97,5.22,-78.722,114.084,39.756,1,329
8386,1.032,0.196,-0.084,-4.45,1.74,4.59,-78.331,113.207,39.756,1,307
8407,1.036,0.172,-0.076,-5.77,2.09,4.59,-79.718,113.847,39.756,1,294
8428,1.032,0.172,-0.076,-5.98,1.95,5.08,-79.679,113.847,39.756,1,288
8449,1.036,0.176,-0.088,-6.19,2.5,7.17,-79.251,116.574,39.756,1,305
8470,1.024,0.184,-0.072,-7.03,3.41,6.75,-79.085,111.379,39.595,1,309
8491,1.016,0.168,-0.092,-2.57,1.25,6.19,-79.825,121.616,39.493,1,305
8511,1.016,0.156,-0.092,-2.85,-0.97,6.4,-79.957,114.872,39.483,1,307
8532,1.02,0.152,-0.092,-1.95,-0.07,5.08,-80.269,122.978,39.369,1,304
8553,1.04,0.172,-0.088,-1.95,1.88,4.87,-79.482,117.104,39.321,1,291
8574,1.032,0.164,-0.08,-1.53,1.88,6.89,-79.979,116.012,39.321,1,293
8595,1.02,0.176,-0.064,-1.39,0.9,7.03,-79.602,109.991,39.321,1,297
8615,1.044,0.172,-0.076,-0.9,2.43,6.12,-79.795,113.847,39.321,1,292
8637,1.048,0.188,-0.088,-2.85,3.41,5.7,-78.802,115.092,39.321,1,296
8657,1.024,0.172,-0.076,-2.78,2.3,5.29,-80.246,114.236,39.124,1,318
8679,1.028,0.156,-0.084,-1.04,1.53,5.22,-80.16,113.711,38.793,1,321
8699,1.036,0.164,-0.088,-2.5,1.53,4.8,-79.593,117.655,38.942,1,302
8720,1.02,0.16,-0.084,-3.69,1.53,5.43,-79.959,117.708,38.85,1,303
8741,1.02,0.164,-0.076,-1.67,1.6,5.22,-79.957,114.872,38.849,1,319
8762,1.028,0.148,-0.076,-0.07,2.3,3.9,-80.813,117.19,38.835,1,368
8783,1.032,0.144,-0.068,-0.7,2.57,2.5,-81.234,115.286,38.835,1,250
8804,1.016,0.148,-0.056,1.95,2.64,4.03,-81.153,110.734,38.835,1,341
8824,1.012,0.152,-0.14,3.34,0.9,5.77,-80.194,108.443,38.835,1,320
8846,1.044,0.164,-0.04,-4.31,2.3,2.78,-78.639,124.006,38.795,1,330
8866,1.02,0.152,-0.08,0.07,0.21,3.55,-81.966,107.936,38.64,1,336
8888,1.028,0.128,-0.092,1.95,-0.42,4.03,-81.288,125.716,38.816,1,343
8908,1.032,0.168,-0.096,0,1.88,4.8,-79.387,119.754,38.699,1,348
8929,1.032,0.176,-0.088,-1.11,1.32,4.45,-79.211,116.574,38.565,1,332
8950,1.032,0.136,-0.068,2.85,1.32,1.67,-81.624,116.574,38.702,1,341
8971,1.012,0.144,-0.08,-1.39,3.55,1.95,-80.761,119.063,38.702,1,350
8992,1.012,0.164,-0.1,-1.11,4.73,2.99,-79.259,121.382,38.702,1,350
9013,1.02,0.144,-0.088,-1.46,6.12,1.67,-81.985,124.601,38.702,1,319
9033,0.972,0.096,-0.064,0.63,1.74,2.3,-82.767,128.377,38.702,1,327
9055,0.976,0.116,-0.096,0.9,1.95,5.36,-79.101,122.39,38.673,1,324
9075,1.036,0.168,-0.048,-0.07,2.5,2.71,-80.433,105.953,38.789,1,324
9097,0.98,0.12,-0.1,-1.6,5.7,0.77,-80.95,129.815,38.442,1,318
9117,0.984,0.14,-0.084,-2.3,0.56,4.38,-80.585,120.973,38.449,1,303
9138,1.06,0.16,-0.064,0.77,-2.5,6.12,-80.772,111.81,38.545,1,307
9159,1.04,0.172,-0.108,-1.18,3.06,5.01,-78.956,122.134,38.545,1,314
9180,1.004,0.144,-0.092,-3.34,3.9,2.71,-81.368,121.227,38.545,1,312
9201,1.036,0.132,-0.06,-1.18,-0.7,2.99,-81.522,114.576,38.545,1,317
9222,1.008,0.148,-0.092,0.21,-0.83,5.98,-79.793,125.105,38.545,1,338
9242,1.02,0.148,-0.076,2.43,-0.49,3.55,-80.742,117.19,38.423,1,337
9264,1.032,0.144,-0.072,1.11,-0.21,2.02,-81.139,116.574,38.293,0,330
9284,1.028,0.152,-0.068,0.14,-1.25,3.9,-80.805,114.111,38.266,0,332
9306,1.028,0.164,-0.076,0.97,-1.18,4.66,-80.033,114.872,38.382,0,330
9326,1.032,0.168,-0.096,1.11,0.49,5.22,-79.387,119.754,38.232,0,332
9347,1.044,0.152,-0.08,-0.35,1.11,2.99,-80.713,119.587,38.232,0,320
9368,1.036,0.148,-0.084,0.14,0.97,2.57,-80.69,116.574,38.232,0,350
9389,1.04,0.152,-0.068,2.99,1.39,2.64,-80.633,111.81,38.232,0,370
9410,1.032,0.152,-0.076,2.78,3.62,1.25,-80.655,116.574,38.232,0,279
9431,1.032,0.144,-0.06,3.2,4.59,-0.77,-81.41,112.628,38.293,0,351
9451,1.024,0.144,-0.116,4.1,2.23,0.77,-79.77,128.863,38.178,0,344
9473,1.028,0.16,-0.068,-1.81,3.48,0.28,-80.407,113.034,38.178,0,340
9493,1.02,0.156,-0.084,0.49,3.34,1.53,-80.152,118.309,38.463,0,336
9515,1.024,0.144,-0.088,5.29,-0.9,2.78,-80.014,120.539,38.435,0,335
9535,1.04,0.156,-0.076,3.69,-3.06,0.77,-79.898,118.226,38.435,0,334
9555,1.04,0.168,-0.084,2.43,-1.95,-1.39,-80.036,117.708,38.435,0,343
9577,1.024,0.152,-0.096,2.23,-2.09,-0.42,-80.048,122.285,38.435,0,352
9597,1.012,0.152,-0.108,0.21,-2.3,2.09,-79.566,125.404,38.435,0,364
9619,1.012,0.152,-0.08,1.6,-2.09,1.81,-80.373,117.767,38.597,0,358
9639,1.028,0.156,-0.072,2.78,-1.11,0.28,-80.518,114.784,38.556,0,341
9660,1.036,0.152,-0.092,1.67,-1.18,0.77,-80.274,121.194,38.658,0,330
9681,1.044,0.144,-0.096,4.1,-1.88,2.02,-80.593,123.699,38.74,0,320
9702,1.036,0.168,-0.044,-0.28,-1.11,3.41,-80.071,114.872,38.474,0,312
9723,1.032,0.168,-0.084,0.83,1.6,3.13,-80.086,110.863,38.474,0,318
9744,1.032,0.16,-0.08,0.97,1.25,2.78,-79.866,119.908,38.474,0,322
9764,1.04,0.16,-0.056,2.23,1.53,1.39,-80.748,109.298,38.474,0,327
9786,1.028,0.152,-0.092,2.57,3.34,0.83,-80.2,121.194,38.474,0,338
9806,1.028,0.16,-0.08,3.2,3.06,2.09,-80.135,116.574,38.663,0,341
9827,1.028,0.148,-0.096,4.8,3.48,2.16,-80.269,122.978,38.603,0,337
9848,1.028,0.144,-0.092,5.91,1.25,1.81,-80.568,122.583,38.726,0,333
9869,1.04,0.148,-0.084,6.96,0.83,0.07,-80.384,120.077,38.693,0,328
9890,1.04,0.156,-0.092,6.96,0.77,-0.28,-79.094,122.744,38.874,0,317
9911,1.044,0.172,-0.1,5.36,1.04,0.83,-80.013,115.472,38.874,0,320
9931,1.036,0.164,-0.088,4.94,1.74,0.83,-79.821,118.226,38.874,0,322
9953,1.036,0.176,-0.088,3.34,2.09,1.25,-79.251,116.574,38.874,0,320
9973,1.036,0.176,-0.088,2.16,2.09,1.25,-79.251,116.574,38.874,0,334
9995,1.024,0.18,-0.084,1.74,2.64,0.28,-79.028,115.025,38.954,0,339
10015,1.028,0.168,-0.088,2.16,2.16,0.14,-79.553,117.655,38.852,0,336
10037,1.024,0.16,-0.084,1.39,2.3,0.63,-79.805,117.13,39.107,0,336
10057,1.024,0.164,-0.084,0.83,2.85,1.46,-79.572,116.574,38.998,0,403
10078,1.02,0.18,-0.096,1.25,3.27,1.74,-79.028,115.025,39.017,0,272
10099,1.028,0.18,-0.076,0.77,2.3,0.28,-79.244,112.899,39.017,0,297
10120,1.024,0.16,-0.12,4.87,1.11,-0.35,-78.954,126.879,39.017,0,331
10141,1.032,0.172,-0.044,2.78,1.04,0.83,-80.245,104.357,39.017,0,342
10162,1.036,0.18,-0.076,-2.43,5.01,1.04,-79.325,112.899,39.017,0,355
10182,1.008,0.172,-0.12,2.92,3.27,1.53,-78.253,124.912,39.176,0,368
10204,1.036,0.164,-0.068,4.66,2.57,0.9,-80.12,112.044,39.493,0,370
10224,1.036,0.176,-0.096,1.95,5.08,0.97,-79.07,115.025,39.308,0,373
10246,1.016,0.18,-0.068,3.62,4.24,0.97,-79.646,112.723,39.384,0,374
10266,1.04,0.18,-0.08,4.24,4.45,1.04,-79.281,113.971,39.431,0,371
10288,1.032,0.188,-0.08,2.99,5.01,1.25,-78.807,113.06,39.431,0,367
10308,1.028,0.184,-0.076,1.53,4.38,1.74,-79.046,112.451,39.431,0,355
10329,1.028,0.184,-0.072,2.23,4.52,1.74,-79.126,111.379,39.431,0,336
10350,1.04,0.184,-0.068,1.88,5.22,1.88,-79.324,110.291,39.431,0,332
10371,1.028,0.164,-0.092,3.69,6.75,0.83,-79.845,111.58,39.585,0,337
10392,1.028,0.184,-0.06,1.32,8.63,1.11,-78.935,116.062,39.491,0,338
10413,1.02,0.18,-0.104,0.28,8.83,2.5,-79.234,109.187,39.716,0,335
10434,1.02,0.172,-0.084,-0.07,8.7,2.09,-79.377,116.038,39.579,0,334
10455,1.024,0.176,-0.072,2.57,6.61,2.57,-79.486,112.257,39.674,0,319
10476,1.032,0.188,-0.056,0.83,6.12,2.3,-79.243,106.595,39.674,0,319
10497,1.024,0.192,-0.06,0.49,5.84,2.09,-78.892,107.362,39.674,0,323
10517,1.024,0.192,-0.064,-0.49,6.61,2.99,-78.826,108.443,39.674,0,328
10539,1.032,0.184,-0.064,1.6,4.73,2.43,-79.821,107.658,39.674,0,333
10559,1.028,0.176,-0.056,1.67,2.78,0.77,-79.606,111.133,39.716,0,346
10580,1.028,0.176,-0.064,2.85,0.14,-0.49,-80.166,106.829,39.96,0,346
10601,1.036,0.184,-0.06,1.11,0.56,0.83,-79.424,108.068,39.768,0,346
10622,1.032,0.18,-0.06,1.95,-1.04,0.63,-79.588,108.443,40.073,0,334
10643,1.028,0.192,-0.06,1.74,-0.63,0.56,-78.934,107.362,40.016,0,332
10664,1.028,0.184,-0.052,1.39,-0.63,1.11,-79.469,105.789,39.954,0,327
10685,1.02,0.192,-0.052,1.53,-0.21,2.37,-78.971,105.162,39.954,0,324
10706,1.032,0.188,-0.06,0.49,0.42,1.53,-79.409,106.935,39.954,0,324
10727,1.02,0.188,-0.06,-0.07,1.39,2.09,-78.912,106.268,39.954,0,396
10747,1.012,0.18,-0.068,-0.28,2.16,2.09,-79.526,111.133,39.994,0,318
10769,1.016,0.188,-0.052,-4.24,2.64,3.41,-79.138,105.469,40.076,0,273
10789,1.016,0.172,-0.092,-0.07,1.39,3.55,-79.138,118.15,40.13,0,334
10811,1.012,0.192,-0.044,-0.97,-0.07,4.45,-78.991,102.915,39.934,0,340
10831,1.032,0.196,-0.072,-6.12,4.1,3.27,-78.567,110.179,40.101,0,328
10853,1.02,0.184,-0.084,-4.73,1.81,3.76,-78.79,114.546,40.042,0,332
10873,1.02,0.172,-0.06,1.81,-0.97,2.99,-80.3,105.601,40.042,0,339
10895,1.04,0.18,-0.068,-0.14,0.7,1.67,-78.733,111.604,40.042,0,350
10915,1.02,0.192,-0.056,-0.42,-0.21,0.9,-78.912,106.268,40.042,0,362
10937,1.02,0.184,-0.072,-2.09,0.56,1.32,-79.043,111.379,40.056,0,389
10957,1.02,0.18,-0.084,-2.99,0.35,2.92,-78.986,115.025,39.954,0,389
10978,1.028,0.18,-0.068,-2.02,-0.35,2.99,-79.404,110.704,39.92,0,367
10999,1.028,0.18,-0.048,-2.23,-0.35,2.85,-79.734,104.939,40.076,0,335
11020,1.028,0.184,-0.048,-3.48,-0.42,2.92,-79.109,104.044,40.039,0,312
11041,1.028,0.192,-0.056,-2.37,1.74,2.92,-78.722,114.084,39.985,0,309
11062,1.028,0.196,-0.048,-2.64,2.3,3.83,-78.858,103.768,39.985,0,312
11083,1.028,0.2,-0.08,-3.27,2.64,4.45,-78.171,111.81,39.985,0,320
11104,1.04,0.192,-0.04,-2.23,1.6,3.34,-79.326,101.776,39.985,0,321
11125,1.028,0.188,-0.06,-0.83,0.21,2.37,-79.139,107.708,39.985,0,335
11146,1.044,0.188,-0.064,-2.71,2.09,2.43,-79.235,108.808,39.844,0,333
11167,1.036,0.188,-0.068,-3.97,3.83,3.41,-79.084,109.893,39.652,0,331
11188,1.028,0.188,-0.064,-2.64,4.17,3.83,-79.03,108.808,39.739,0,326
11208,1.028,0.196,-0.056,-2.85,4.03,3.9,-78.596,104.582,39.719,0,315
11230,1.016,0.188,-0.048,-0.56,1.04,2.78,-78.827,106.268,39.67,0,313
11250,1.04,0.192,-0.052,0.42,1.18,1.25,-79.178,105.162,39.67,0,316
11272,1.028,0.192,-0.056,-1.39,2.16,3.13,-78.996,106.268,39.67,0,321
11292,1.024,0.196,-0.056,-0.49,2.23,3.13,-78.747,105.953,39.67,0,313
11314,1.024,0.18,-0.06,0.7,1.81,2.43,-79.509,108.443,39.67,0,338
11334,1.028,0.18,-0.06,-0.97,2.23,2.5,-79.549,108.443,39.798,0,336
11356,1.016,0.172,-0.06,1.53,1.04,2.92,-80.251,108.861,39.715,0,328
11376,1.008,0.168,-0.052,4.52,-0.7,4.1,-80.422,110.564,39.727,0,323
11397,1.024,0.16,-0.068,2.78,0.21,5.98,-80.083,112.044,39.483,0,388
11418,1.032,0.18,-0.072,2.3,0.56,4.45,-79.367,111.81,39.636,0,296
11439,1.028,0.2,-0.04,1.74,-0.28,4.45,-78.784,101.317,39.636,0,235
11460,1.02,0.188,-0.068,3.62,-1.18,3.97,-78.916,109.893,39.636,0,316
11481,1.024,0.192,-0.064,3.9,-2.57,3.69,-78.826,108.443,39.636,0,330
11502,1.056,0.176,-0.064,-2.5,1.46,4.31,-79.949,109.991,39.636,0,348
11523,1.02,0.172,-0.072,-1.39,0.63,4.45,-79.587,115.472,39.685,0,354
11544,1.008,0.176,-0.06,3.62,-2.64,3.69,-79.727,106.468,39.581,0,353
11565,1.016,0.176,-0.068,5.29,-3.76,0.63,-79.684,111.133,39.519,0,355
11585,1.048,0.192,-0.056,2.02,-1.46,1.32,-79.201,106.268,39.499,0,362
11607,1.028,0.2,-0.068,-0.63,-0.07,2.85,-78.394,108.786,39.561,0,371
11627,1.02,0.196,-0.072,0.63,-0.77,1.25,-78.437,110.179,39.561,0,375
11649,1.036,0.196,-0.08,-1.88,0.77,1.53,-78.457,112.212,39.561,0,359
11669,1.024,0.188,-0.08,-2.64,0.35,2.37,-78.722,113.06,39.561,0,326
11691,1.008,0.172,-0.06,-1.18,-1.81,0.97,-79.554,108.833,39.561,0,318
11711,1.024,0.176,-0.072,0.56,-0.63,-0.14,-79.262,118.15,39.338,0,314
11732,1.032,0.176,-0.072,0.42,-0.56,0.77,-79.358,104.33,39.601,0,318
11753,1.012,0.184,-0.096,-0.63,-0.14,1.81,-78.416,117.561,39.581,0,318
11774,1.02,0.184,-0.056,-0.9,-1.81,1.95,-79.327,106.935,39.604,0,316
11795,1.032,0.176,-0.072,1.25,-2.16,0.97,-79.566,112.257,39.707,0,316
11815,1.04,0.176,-0.068,1.88,-2.3,1.53,-79.723,111.133,39.707,0,316
11837,1.048,0.188,-0.072,-0.83,-0.35,2.5,-79.132,110.964,39.707,0,320
11857,1.036,0.196,-0.072,-2.37,0.35,3.06,-78.733,111.604,39.707,0,321
11879,1.028,0.192,-0.076,-0.83,-1.32,1.74,-79.076,113.971,39.707,0,331
11899,1.024,0.188,-0.088,1.32,-2.43,0.63,-78.547,115.092,39.616,0,331
11921,1.036,0.192,-0.088,-1.39,-0.77,1.46,-78.483,114.632,39.562,0,327
11941,1.028,0.188,-0.096,-0.42,0.49,2.78,-78.402,117.059,39.598,0,331
11963,1.02,0.184,-0.084,0.35,0,2.09,-78.79,114.546,39.658,0,326
11983,1.028,0.196,-0.08,-0.63,-0.28,1.18,-78.369,112.212,39.694,0,332
12004,1.032,0.2,-0.088,-1.88,0.14,0.97,-78.051,113.758,39.694,0,316
12025,1.032,0.204,-0.084,-3.76,1.67,1.32,-77.895,110.08,39.694,0,318
12046,1.024,0.2,-0.084,-3.41,1.46,1.67,-78.722,113.06,39.694,1,324
12067,1.028,0.184,-0.08,-1.11,-0.07,1.25,-78.962,113.507,39.694,1,462
12088,1.032,0.184,-0.076,-0.7,-1.04,0.9,-79.087,112.451,39.807,1,259
12109,1.036,0.188,-0.064,-3.83,-1.88,0.77,-79.154,108.808,39.554,1,265
12130,1.036,0.188,-0.124,-0.7,-1.95,-0.42,-77.741,123.417,39.887,1,329
12151,1.028,0.212,-0.088,-3.41,-3.55,0.21,-77.419,112.551,39.735,1,336
12172,1.044,0.208,-0.088,-4.73,-3.2,-1.32,-78.167,109.448,39.872,1,334
12193,1.048,0.192,-0.092,-2.37,-2.57,-1.95,-78.711,116.084,39.872,1,343
12214,1.04,0.196,-0.064,-0.97,-2.99,0.56,-79.014,104.866,39.872,1,353
12235,1.04,0.208,-0.092,-0.83,-1.11,1.18,-77.67,113.869,39.872,1,370
12256,1.028,0.208,-0.076,0.28,-0.97,1.11,-77.849,110.08,39.872,1,386
12276,1.028,0.212,-0.092,-2.23,0.42,0.77,-77.336,113.467,39.934,1,401
12298,1.024,0.208,-0.08,-2.02,0.21,0.49,-77.728,111.046,40.092,1,398
12318,1.024,0.204,-0.108,-2.5,0.14,1.04,-77.303,117.906,40.05,1,370
12340,1.02,0.2,-0.088,-1.6,-0.42,1.32,-77.305,115.685,39.999,1,325
12360,1.024,0.208,-0.1,-2.43,-1.67,2.02,-77.811,113.342,39.988,1,292
12382,1.032,0.2,-0.1,0.21,-1.6,1.39,-77.78,116.574,39.988,1,283
12402,1.032,0.2,-0.104,0.21,-0.63,1.25,-77.684,117.483,39.988,1,284
12424,1.028,0.216,-0.108,-1.39,-0.42,2.02,-76.786,116.574,39.988,1,291
12444,1.036,0.2,-0.108,-0.97,-0.14,2.02,-77.631,118.378,39.988,1,297
12465,1.024,0.196,-0.112,-1.46,-1.11,2.5,-77.574,119.754,40.101,1,309
12486,1.024,0.196,-0.1,-0.7,-2.5,2.23,-77.878,117.039,40.126,1,308
12507,1.028,0.188,-0.112,-0.83,-2.3,3.48,-77.956,119.367,40.168,1,308
12528,1.032,0.196,-0.112,-1.04,-2.16,4.73,-77.351,117.906,40.279,1,302
12549,1.032,0.212,-0.112,-3.41,-1.88,5.98,-76.826,114.452,40.081,1,292
12570,1.02,0.232,-0.1,-4.03,-2.16,6.75,-76.095,113.326,40.081,1,303
12591,1.024,0.22,-0.128,-0.42,-2.37,5.08,-76.047,120.2,40.081,1,297
12612,1.024,0.208,-0.132,-0.21,-0.83,4.17,-76.479,122.409,40.081,1,311
12633,1.032,0.2,-0.124,-0.49,-0.83,4.31,-77.16,121.808,40.081,1,323
12654,1.024,0.188,-0.112,0,-1.39,4.94,-77.943,120.793,40.129,1,324
12675,1.028,0.204,-0.128,-0.14,0.42,4.31,-76.503,121.917,40.115,1,320
12695,1.032,0.212,-0.128,-0.97,-0.56,3.06,-76.461,121.131,39.968,1,325
12717,1.028,0.208,-0.124,3.69,-1.46,2.02,-78.441,121.9,39.934,1,426
12737,1.048,0.172,-0.116,5.08,-1.53,-0.14,-78.808,124.006,39.881,1,210
12759,1.024,0.18,-0.12,3.97,-4.24,0.42,-78.077,123.699,39.9,1,336
12779,1.016,0.176,-0.176,6.05,-5.15,1.88,-76.24,135.01,39.9,1,313
12801,1.02,0.196,-0.072,5.01,-4.1,3.62,-78.437,110.179,39.9,1,318
12821,1.012,0.22,-0.132,-0.83,-2.57,4.17,-75.78,120.973,39.9,1,328
12841,1.012,0.196,-0.16,6.89,-3.48,2.3,-76.981,123.156,39.943,1,344
12863,1.016,0.192,-0.116,7.03,-2.57,2.37,-77.362,125.083,39.993,1,343
12883,1.028,0.196,-0.14,5.5,-1.18,1.74,-77.244,122.329,40.117,1,348
12905,1.028,0.204,-0.092,8.77,-2.71,0.97,-77.725,114.283,40.142,1,364
12925,1.044,0.208,-0.1,5.77,-0.21,-0.28,-77.54,115.685,40.092,1,350
12947,1.032,0.22,-0.132,2.99,-0.21,1.04,-76.045,120.973,40.072,1,349
12967,1.024,0.252,-0.148,3.27,0.42,2.09,-74.077,120.435,40.072,1,327
12989,1.024,0.248,-0.136,2.5,1.25,0,-74.565,118.749,40.072,1,310
13009,1.028,0.212,-0.14,3.48,-0.56,-3.13,-76.524,125.763,40.072,1,307
13030,1.024,0.188,-0.156,4.03,0.14,-2.09,-77.988,120.793,40.078,1,321
13051,1.032,0.196,-0.14,1.18,1.18,1.18,-76.031,127.415,40.406,1,315
13072,1.024,0.208,-0.16,0.56,2.64,3.48,-75.632,127.578,40.637,1,318
13093,1.02,0.204,-0.148,-0.9,3.06,4.03,-76.126,125.97,40.737,1,320
13114,1.032,0.208,-0.136,0.49,2.92,2.09,-76.466,123.188,40.72,1,311
13134,1.028,0.22,-0.144,-1.25,3.06,1.18,-75.658,123.216,40.72,1,310
13156,1.016,0.216,-0.148,-1.95,3.27,2.16,-75.554,124.428,40.72,1,304
13176,1.008,0.22,-0.144,-1.32,3.2,2.16,-75.681,122.958,40.72,1,311
13198,1.004,0.22,-0.152,-0.14,4.17,0.35,-75.083,125.349,40.72,1,313
13218,1.008,0.204,-0.152,0.7,4.24,-3.34,-75.782,124.929,40.72,1,331
13240,1.024,0.208,-0.144,1.88,4.24,-4.94,-76.128,124.704,40.829,1,322
13260,1.032,0.208,-0.14,2.57,3.83,-4.52,-76.35,123.953,40.984,1,309
13281,1.024,0.212,-0.144,0.63,3.76,-2.78,-75.955,124.195,41.048,1,320
13302,1.024,0.208,-0.148,-0.35,2.78,-0.9,-76.007,125.443,41.099,1,313
13323,1.028,0.22,-0.132,2.37,0.77,-0.97,-75.992,120.973,41.134,1,378
13344,1.032,0.236,-0.116,4.73,1.88,-0.42,-75.617,116.961,41.134,1,260
13365,1.036,0.236,-0.12,4.94,4.52,-0.83,-75.749,117.359,41.134,1,339
13386,1.02,0.216,-0.18,6.75,1.25,0.97,-73.738,131.196,41.134,1,325
13407,1.028,0.22,-0.096,6.05,0.21,0.63,-76.863,113.583,41.134,1,340
13427,1.024,0.22,-0.136,2.02,4.8,0.07,-75.83,121.733,41.762,1,341
13449,1.008,0.2,-0.124,6.96,4.94,1.04,-76.865,121.808,41.953,1,342
13469,1,0.196,-0.124,8.97,10.02,0.63,-76.948,122.329,41.814,1,352
13491,1.02,0.22,-0.148,7.17,14.54,0.42,-75.434,123.939,41.657,1,347
13511,1.028,0.236,-0.124,4.59,10.23,1.67,-75.805,114.236,41.715,1,345
13533,1.052,0.228,-0.108,4.17,6.47,1.32,-75.513,116.197,41.715,1,344
13553,1.036,0.248,-0.128,2.64,6.19,4.52,-74.628,115.123,41.715,1,340
13575,1.016,0.26,-0.124,-0.14,5.63,8.28,-74.176,115.506,41.715,1,321
13595,1.032,0.248,-0.1,1.39,3.9,7.79,-75.479,111.969,41.715,1,318
13616,1.028,0.24,-0.108,0.97,2.64,6.33,-75.646,114.236,41.943,1,319
13637,1.032,0.232,-0.104,-2.37,4.1,5.43,-76.166,114.154,41.842,1,320
13658,1.012,0.224,-0.132,-4.38,4.52,5.84,-75.597,120.519,41.866,1,306
13679,0.98,0.228,-0.124,-2.78,0.9,7.65,-75.959,108.734,42.051,1,308
13700,1.008,0.244,-0.1,-2.23,1.53,6.89,-74.98,115.076,41.897,1,307
13721,1.004,0.248,-0.108,-7.03,5.01,6.26,-74.927,113.541,41.897,1,313
13742,1.012,0.228,-0.124,-8.97,6.26,7.37,-75.621,118.549,41.897,1,307
13763,1,0.228,-0.12,-8.21,4.8,7.65,-75.557,117.767,41.897,1,302
13784,0.996,0.216,-0.116,-4.94,2.02,6.61,-76.177,118.246,41.897,1,328
13804,1.028,0.22,-0.104,-4.45,2.64,5.36,-76.688,115.31,41.62,1,335
13826,1.008,0.192,-0.124,-6.96,6.61,5.08,-77.23,122.865,41.667,1,322
13846,0.98,0.188,-0.14,-8.21,5.57,6.26,-75.996,123.188,41.332,1,323
13868,1.012,0.208,-0.124,-4.73,4.03,4.38,-76.165,115.355,41.206,1,323
13888,0.992,0.192,-0.132,-5.98,6.12,5.63,-76.788,124.518,41.22,1,321
13910,0.984,0.192,-0.116,-1.39,5.22,4.03,-77.164,121.148,41.22,1,378
13930,1.028,0.188,-0.108,-3.27,3.34,1.53,-78.096,119.885,41.22,1,288
13950,1.012,0.192,-0.108,-2.02,5.01,2.23,-77.725,119.367,41.22,1,347
13972,0.96,0.204,-0.156,1.11,3.41,4.8,-75.029,127.415,41.22,1,338
13992,0.988,0.204,-0.056,-2.3,5.15,2.64,-77.823,108.443,41.186,0,325
14014,1.024,0.192,-0.092,-5.63,5.43,-2.23,-78.958,114.546,41.205,0,341
14034,1.032,0.184,-0.108,-2.92,0.97,1.04,-78.29,118.96,41.132,0,345
14056,1.02,0.208,-0.104,0.21,-0.9,5.22,-77.162,116.574,41.24,0,343
14076,1.012,0.2,-0.096,3.9,-0.42,6.68,-77.641,115.65,41.333,0,338
14098,1.036,0.216,-0.076,-0.21,1.25,3.83,-77.542,109.393,41.333,0,344
14118,1.048,0.208,-0.08,-0.28,1.32,2.85,-78.001,111.046,41.333,0,356
14139,1.024,0.2,-0.096,-0.42,1.18,4.94,-77.782,115.65,41.333,0,355
14160,1.012,0.192,-0.084,1.46,1.32,7.51,-77.491,111.046,41.333,0,342
14181,1.012,0.212,-0.08,0.63,3.76,7.86,-76.9,108.749,41.196,0,334
14202,1.028,0.22,-0.088,2.92,5.77,5.84,-76.69,119.063,40.736,0,328
14223,1.032,0.224,-0.088,0.77,6.75,3.27,-76.879,111.456,40.932,0,323
14244,1.02,0.216,-0.108,0.56,9.39,2.23,-76.686,116.574,40.849,0,328
14265,1.024,0.212,-0.096,0.9,5.98,3.27,-77.202,114.371,40.888,0,313
14286,1.04,0.2,-0.04,3.55,5.57,1.32,-78.91,101.317,40.888,0,317
14307,1.04,0.188,-0.092,2.64,8.83,-1.32,-78.627,116.084,40.888,0,316
14327,1.028,0.2,-0.072,1.67,8.49,-0.9,-77.589,115.21,40.888,0,323
14349,1.024,0.2,-0.096,3.2,6.96,1.74,-78.762,112.02,40.888,0,334
14369,1.02,0.188,-0.064,2.78,6.05,2.09,-78.605,111.604,41.093,0,360
14391,1.012,0.204,-0.08,1.74,7.3,2.64,-77.788,111.421,40.995,0,384
14411,1.028,0.212,-0.056,4.24,8.77,2.3,-77.965,104.804,40.945,0,398
14433,1.028,0.196,-0.072,4.1,8.97,1.53,-78.524,110.179,41.191,0,404
14453,1.032,0.2,-0.052,4.17,7.86,2.92,-78.683,104.582,41.156,0,394
14475,1.02,0.216,-0.068,5.36,9.53,6.12,-77.488,107.483,41.156,0,396
14495,1.016,0.216,-0.052,8.07,10.85,6.89,-78.212,107.426,41.156,0,443
14517,1.028,0.212,-0.06,9.18,10.43,4.45,-77.427,105.953,41.156,0,415
14537,1.052,0.224,-0.072,2.3,10.92,1.39,-77.141,113.079,41.156,0,341
14559,1.004,0.196,-0.052,3.2,7.65,3.76,-78.587,104.866,40.837,0,408
14579,1.016,0.2,-0.044,9.25,5.63,5.15,-78.61,102.415,41.161,0,402
14600,1.032,0.232,-0.052,0.7,7.23,2.23,-77.032,102.641,41.239,0,396
14621,1.024,0.216,-0.056,-0.77,5.77,1.74,-77.713,104.542,41.176,0,390
14642,1.024,0.188,-0.036,5.08,2.92,3.06,-79.418,100.848,40.949,0,378
14663,1.032,0.188,-0.024,3.2,5.08,1.53,-78.319,103.002,40.949,0,379
14684,1.032,0.216,-0.052,2.09,8.35,0.9,-77.607,99.137,40.949,0,381
14705,1.028,0.216,-0.028,3.9,8.7,0.49,-78.436,98.753,40.949,0,389
14726,1.024,0.196,-0.056,2.5,8.77,-0.35,-78.747,105.953,40.949,0,382
14746,1.012,0.188,-0.028,4.03,7.51,0.7,-79.368,98.478,41.018,0,377
14768,1.02,0.192,-0.032,5.01,5.57,1.11,-79.202,99.47,41.421,0,355
14788,1.02,0.208,-0.044,3.27,5.22,1.25,-78.232,101.952,41.485,0,337
14810,1.016,0.208,-0.032,1.81,7.1,1.74,-78.303,98.753,41.446,0,332
14830,1.02,0.212,-0.032,2.23,7.37,1.18,-77.811,101.521,41.549,0,319
14852,1.024,0.216,-0.024,2.64,5.77,1.81,-77.952,97.393,41.554,0,320
14872,1.024,0.216,-0.028,2.99,5.7,2.23,-77.832,95.201,41.554,0,318
14893,1.024,0.22,-0.02,2.23,5.77,1.39,-77.832,95.201,41.554,0,327
14914,1.04,0.22,-0.016,0.83,4.73,2.16,-78.031,94.167,41.554,0,331
14935,1.02,0.2,-0.024,1.88,2.99,3.62,-78.834,96.85,41.563,0,343
14956,1.016,0.22,-0.012,1.39,1.74,6.05,-77.77,93.129,41.695,0,337
14977,1.02,0.22,-0.02,1.46,1.11,6.47,-77.786,95.201,41.687,0,331
14997,1.016,0.208,-0.02,1.18,1.04,5.7,-79.119,99.47,41.672,0,320
15019,1.02,0.192,-0.024,2.37,-0.42,5.36,-78.688,99.098,41.426,0,320
15039,1.004,0.208,-0.032,3.83,-2.3,5.22,-78.339,95.499,41.426,0,321
15060,1.016,0.22,-0.024,5.7,-3.2,4.59,-77.718,96.233,41.426,0,319
15081,1.016,0.232,-0.028,2.57,-0.83,6.82,-77.053,96.889,41.426,0,323
15101,1.028,0.22,-0.016,2.23,-0.07,7.3,-77.895,94.167,41.426,0,347
15123,1.024,0.204,-0.028,1.88,0.28,7.1,-78.636,97.823,41.426,0,403
15143,1.016,0.2,-0.024,2.99,0.97,5.84,-78.792,96.85,41.196,0,244
15165,1.012,0.196,-0.028,3.55,-2.16,5.98,-79.44,109.991,41.02,0,352
15185,1,0.164,-0.076,9.39,-5.57,7.58,-80.35,92.67,41.054,0,343
15206,1.024,0.188,-0.02,4.45,-4.1,7.51,-79.405,99.47,41.103,0,330
15227,1.028,0.212,-0.064,-1.88,-1.88,6.33,-77.849,106.806,41.004,0,330
15248,1.028,0.204,-0.028,1.81,-4.38,7.1,-78.679,97.823,41.004,0,336
15269,1.02,0.192,-0.028,3.48,-5.36,6.33,-79.235,98.304,41.004,0,341
15290,1.012,0.2,-0.032,2.71,-3.69,5.29,-78.688,99.098,41.004,0,352
15311,1.016,0.2,-0.036,2.43,-2.37,7.23,-78.695,100.211,41.004,0,379
15332,1.02,0.208,-0.072,1.04,-1.81,8.49,-77.765,108.767,40.543,0,378
15352,1.04,0.212,-0.056,1.46,-3.27,8.35,-78.152,103.789,40.538,0,362
15374,1.04,0.208,-0.056,-0.28,-1.53,6.68,-78.45,103.002,40.529,0,326
15394,1.044,0.188,-0.048,-1.88,-1.11,3.27,-79.477,104.33,40.278,0,294
15416,1.032,0.176,-0.06,0.83,-0.28,1.32,-79.792,108.833,40.312,0,284
15436,1.028,0.18,-0.024,0.97,-0.14,1.67,-79.988,97.602,40.312,0,285
15458,1.02,0.164,-0.076,2.02,1.46,3.13,-79.957,114.872,40.312,0,297
15478,1.02,0.18,-0.04,2.43,-0.9,5.01,-79.759,102.536,40.312,0,311
15500,1.012,0.172,-0.084,2.43,-1.04,4.31,-79.279,113.364,40.312,0,331
15520,1.008,0.184,-0.08,1.32,-3.13,3.83,-78.436,112.628,40.251,0,335
15542,1.012,0.184,-0.08,1.39,-3.69,3.34,-78.958,111.379,40.189,0,332
15562,1.016,0.172,-0.076,2.02,-3.76,1.74,-79.52,113.847,39.912,0,333
15583,1.032,0.188,-0.056,3.48,-2.85,1.18,-79.243,106.595,40.149,0,325
15604,1.036,0.188,-0.068,0.77,-3.06,1.67,-79.084,109.893,40.237,0,316
15625,1.028,0.196,-0.072,1.04,-2.71,3.55,-78.524,110.179,40.237,0,334
15646,1.044,0.196,-0.064,0.07,-2.3,3.2,-78.834,108.091,40.237,0,334
15667,1.044,0.192,-0.064,-1.39,-2.02,2.78,-78.621,111.202,40.237,0,327
15688,1.04,0.196,-0.068,-2.23,-1.95,2.57,-79.356,109.187,40.237,0,336
15709,1.032,0.188,-0.064,-2.5,-1.6,2.78,-79.435,114.452,39.892,0,345
15730,1.032,0.18,-0.068,-2.02,-1.11,3.62,-79.444,110.704,40.138,0,433
15751,1.032,0.184,-0.068,-3.06,-1.11,4.66,-79.243,110.291,40.171,0,202
15772,1.032,0.188,-0.076,-2.3,-1.88,4.94,-78.889,112.02,39.895,0,313
15793,1.02,0.192,-0.1,-1.11,-2.5,5.43,-78.023,117.521,40.084,0,294
15814,1.036,0.188,-0.084,-3.83,-0.42,4.31,-78.764,114.084,40.084,0,300
15835,1.024,0.192,-0.088,-6.05,1.04,4.03,-77.968,122.238,40.084,0,311
15855,1.02,0.188,-0.104,-3.69,-1.11,5.7,-78.722,113.06,40.084,0,317
15877,1.016,0.18,-0.096,-1.74,-1.46,4.66,-78.722,123.699,40.084,0,337
15897,1.02,0.168,-0.076,1.11,-2.16,2.09,-79.759,114.35,39.821,0,350
15919,1.036,0.184,-0.072,-0.49,-0.56,0.83,-79.208,111.379,39.839,0,363
15939,1.024,0.176,-0.076,-0.63,-0.7,1.67,-79.402,113.364,39.684,0,363
15961,1.028,0.168,-0.088,-0.35,-0.28,2.37,-79.553,117.655,39.659,0,341
15981,1.04,0.18,-0.084,-1.81,0.28,2.09,-79.193,115.025,39.471,0,296
16003,1.028,0.184,-0.088,-2.09,0.21,1.74,-79.159,113.971,39.471,0,277
16023,1.036,0.176,-0.084,0.42,0.56,1.39,-79.807,116.574,39.471,0,273
16044,1.036,0.172,-0.08,1.25,0,2.5,-79.18,107.708,39.471,0,283
16065,1.028,0.176,-0.112,0.7,1.32,3.62,-78.534,122.48,39.471,0,298
16086,1.024,0.172,-0.076,-0.21,-0.28,5.29,-79.6,113.847,39.515,0,299
16107,1.028,0.172,-0.096,0.97,-0.42,4.73,-79.159,119.176,39.493,0,297
16128,1.024,0.18,-0.084,-0.9,-1.67,2.71,-79.028,115.025,39.695,0,288
16149,1.02,0.188,-0.084,1.11,-2.37,1.04,-78.593,114.084,39.447,0,286
16169,1.024,0.196,-0.096,-2.3,0.42,2.99,-78.305,115.611,39.572,0,276
16190,1.028,0.184,-0.088,-1.32,0.49,3.76,-78.962,113.507,39.572,0,280
16211,1.028,0.18,-0.092,0,1.04,2.57,-78.881,117.081,39.572,0,285
16232,1.028,0.18,-0.084,0.77,0.42,-0.42,-79.07,115.025,39.572,0,295
16253,1.024,0.172,-0.096,0.28,0.9,-0.9,-79.117,119.176,39.572,0,300
16274,1.024,0.172,-0.092,0.35,-0.14,-0.21,-79.221,118.15,39.493,0,321
16294,1.032,0.18,-0.092,0,-0.49,0.07,-78.923,117.081,39.622,0,305
16316,1.032,0.18,-0.084,-1.32,-0.28,-0.63,-79.111,115.025,39.642,0,302
16336,1.028,0.184,-0.104,-2.16,0.42,-0.83,-78.171,121.338,39.679,0,304
16358,1.028,0.192,-0.104,-0.77,-1.32,0.35,-78.454,116.084,39.616,0,428
16378,1.024,0.192,-0.096,0.21,-2.02,0.97,-78.402,117.059,39.616,0,234
16400,1.028,0.196,-0.08,-4.59,-3.13,2.3,-78.369,112.212,39.616,0,218
16420,1.024,0.188,-0.124,-0.07,-2.43,1.74,-77.602,123.417,39.616,0,316
16441,1.024,0.196,-0.076,0,-4.03,2.64,-78.405,111.202,39.616,0,343
16462,1.028,0.204,-0.072,-5.63,-1.6,2.43,-78.122,109.448,39.701,0,360
16483,1.028,0.192,-0.112,-4.45,-0.07,2.92,-77.805,120.265,39.847,0,367
16504,1.016,0.196,-0.108,-0.97,-3.06,3.9,-77.665,120.265,39.71,0,371
16525,1.02,0.184,-0.116,1.81,-3.9,1.46,-78.111,118.96,39.772,0,378
16546,1.028,0.196,-0.1,0.63,-3.34,-0.63,-77.352,115.685,39.617,0,377
16567,1.032,0.208,-0.116,-1.25,-1.81,-0.56,-77.011,119.157,39.617,0,389
16587,1.028,0.196,-0.116,-1.11,-0.63,-0.63,-77.514,120.627,39.617,0,392
16609,1.032,0.196,-0.112,-1.04,-1.18,-0.63,-77.667,119.754,39.617,0,367
16629,1.036,0.196,-0.096,-1.81,-1.32,-0.07,-78.11,116.104,39.617,0,332
16651,1.024,0.184,-0.124,-1.18,-0.35,0.42,-77.944,123.12,39.749,0,320
16671,1.028,0.18,-0.124,1.67,-0.07,0.07,-77.788,121.148,39.977,0,309
16693,1.028,0.196,-0.104,0.28,-0.07,0.63,-77.667,119.754,40.005,0,312
16713,1.024,0.192,-0.116,-0.28,-0.07,1.32,-77.649,121.148,39.704,0,315
16735,1.028,0.204,-0.112,-0.07,-0.07,1.74,-77.25,118.776,39.954,0,303
16755,1.028,0.204,-0.116,0.07,0.35,2.3,-77.146,119.633,39.954,0,308
16777,1.028,0.204,-0.116,-0.63,0.77,2.99,-77.146,119.633,39.954,0,307
16797,1.028,0.2,-0.112,-0.07,0.77,2.99,-77.435,119.258,39.954,0,314
16818,1.032,0.204,-0.092,0.83,0.9,1.81,-78.096,113.758,39.954,0,316
16839,1.036,0.204,-0.092,-0.56,0.9,1.32,-77.443,114.784,40.095,0,328
16860,1.028,0.204,-0.108,-0.7,1.04,2.57,-77.256,115.685,39.85,1,336
16881,1.02,0.204,-0.108,0.9,0.7,2.09,-77.255,117.906,40.044,1,339
16902,1.024,0.204,-0.108,0.63,0.77,2.09,-77.303,117.906,40.019,1,354
16922,1.028,0.2,-0.116,0.28,0.9,2.64,-77.33,120.123,40.114,1,318
16944,1.02,0.2,-0.128,0.83,0.14,2.71,-76.901,122.628,40.069,1,316
16964,1.02,0.204,-0.128,0.63,-1.88,3.76,-76.721,122.115,40.069,1,315
16986,1.016,0.2,-0.144,1.67,-3.2,5.08,-76.962,123.968,40.069,1,454
17006,1.032,0.204,-0.12,0.49,-6.68,2.57,-76.135,122.69,40.069,1,268
17028,1.028,0.216,-0.124,0.28,-10.71,-0.35,-77.056,113.971,40.019,1,212
17048,1.04,0.184,-0.172,3.62,-6.19,0.21,-76.392,133.079,39.901,1,334
17070,1.024,0.208,-0.116,1.46,-7.3,2.71,-76.913,119.157,39.929,1,342
17090,1.028,0.2,-0.12,0.97,-4.8,4.59,-77.223,120.973,40.013,1,350
17111,1.04,0.204,-0.136,4.94,-2.78,2.23,-76.741,123.699,39.884,1,335
17132,1.028,0.212,-0.156,2.78,-3.48,2.3,-75.644,126.357,39.968,1,351
17153,1.036,0.192,-0.152,0.49,2.3,0.28,-77.023,117.856,39.968,1,364
17174,1.048,0.22,-0.1,-3.41,4.17,-0.07,-76.684,114.066,39.968,1,389
17195,1.024,0.216,-0.116,-2.71,2.64,0.77,-76.573,119.52,39.968,1,397
17216,1.024,0.196,-0.144,-1.74,2.3,0.7,-76.645,126.314,39.968,1,415
17236,1.032,0.212,-0.12,-5.15,4.03,-0.63,-76.724,119.52,40.153,1,377
17257,1.028,0.212,-0.112,-6.61,4.59,0.21,-76.877,117.856,40.072,1,336
17278,1.024,0.192,-0.124,-4.66,4.03,1.88,-77.423,122.865,40.167,1,316
17299,1.024,0.2,-0.14,-0.56,2.99,1.53,-76.596,125.001,40.066,1,291
17320,1.04,0.228,-0.096,-6.12,4.24,1.67,-75.702,122.014,40.192,1,289
17341,1.036,0.22,-0.14,-6.89,4.66,3.69,-76.502,116.989,40.192,1,301
17362,1.028,0.22,-0.1,-4.8,2.92,3.06,-76.777,114.452,40.192,1,311
17383,1.028,0.216,-0.1,-3.06,1.81,0.7,-76.969,114.851,40.192,1,309
17403,1.008,0.212,-0.1,-5.84,1.88,3.41,-76.915,115.262,40.192,1,323
17425,1.016,0.204,-0.1,-4.8,-0.56,4.59,-77.401,116.122,40.165,1,318
17445,1.032,0.2,-0.124,-2.92,-0.14,2.71,-77.16,121.808,40.267,1,311
17467,1.024,0.196,-0.104,-2.99,0.07,2.85,-77.78,117.96,40.154,1,308
17487,1.024,0.208,-0.124,-4.38,0.77,3.69,-76.624,119.52,40.047,1,299
17509,1.02,0.212,-0.1,-2.57,-2.37,4.45,-77.275,112.551,40.087,1,296
17529,1.016,0.212,-0.096,1.25,-3.62,3.76,-77.014,115.262,40.087,1,315
17551,1.028,0.208,-0.096,3.2,-5.84,1.88,-77.443,114.784,40.087,1,301
17571,1.028,0.204,-0.132,3.48,-6.05,1.39,-76.707,122.914,40.087,1,305
17592,1.028,0.208,-0.124,3.62,-7.03,1.6,-76.751,120.81,40.087,1,317
17613,1.02,0.216,-0.14,2.92,-6.61,2.57,-75.842,122.958,40.117,1,457
17634,1.024,0.212,-0.148,4.03,-4.73,1.81,-75.835,124.929,40.218,1,243
17655,1.028,0.204,-0.136,1.32,-5.29,1.95,-76.179,125.97,40.193,1,341
17676,1.024,0.196,-0.196,-0.77,-2.16,1.88,-73.384,137.131,40.288,1,321
17697,1.008,0.212,-0.152,0.7,-4.52,4.8,-76.708,119.99,40.285,1,325
17718,1.032,0.22,-0.16,-2.23,-2.16,3.97,-75.239,126.037,40.285,1,332
17739,1.024,0.208,-0.172,-1.53,-1.25,3.48,-75.239,129.598,40.285,1,341
17760,1.02,0.208,-0.156,2.78,-2.57,3.69,-75.705,126.879,40.285,1,347
17780,1.036,0.208,-0.18,-0.07,0.7,3.27,-75.136,130.882,40.285,1,363
17802,1.024,0.212,-0.144,-0.56,0.77,4.03,-75.955,124.195,40.164,1,376
17822,1.024,0.208,-0.168,-1.18,1.53,4.52,-75.503,128.264,40.175,1,377
17844,1.02,0.208,-0.156,-1.6,2.23,4.24,-75.523,127.578,40.097,1,366
17864,1.024,0.208,-0.168,-2.85,3.69,3.83,-75.536,126.357,40.089,1,338
17886,1.028,0.196,-0.144,-0.7,4.73,3.41,-76.695,126.314,40.296,1,307
17906,1.028,0.196,-0.152,-0.42,3.76,3.06,-76.441,127.803,40.296,1,305
17928,1.02,0.212,-0.18,-1.04,0.97,5.43,-74.754,130.343,40.296,1,304
17948,1.028,0.228,-0.112,-2.5,1.74,6.75,-76.126,116.17,40.296,1,306
17969,1.028,0.208,-0.164,-2.02,0.56,7.51,-75.557,128.264,40.296,1,330
17990,1.02,0.188,-0.128,2.23,0.21,6.12,-76.536,133.035,40.122,1,334
18011,1.028,0.192,-0.168,2.3,0.35,5.01,-76.341,129.815,40.12,1,338
18032,1.024,0.196,-0.148,0.49,1.39,5.43,-76.29,129.815,39.65,1,323
18053,1.02,0.192,-0.164,0.35,2.92,5.84,-76.101,130.512,39.957,1,320
18074,1.02,0.192,-0.156,3.2,0.56,5.98,-76.373,129.103,39.977,1,310
18095,1.028,0.2,-0.16,1.95,0.14,5.22,-76.015,128.669,39.977,1,314
18115,1.028,0.2,-0.144,2.37,2.09,4.24,-76.524,125.763,39.977,1,316
18137,1.024,0.192,-0.18,3.83,3.13,3.55,-75.592,133.162,39.977,1,330
18157,1.024,0.196,-0.184,3.76,4.66,2.99,-75.538,133.162,39.977,1,332
18179,1.02,0.188,-0.168,1.39,6.89,2.16,-76.262,131.109,39.67,1,338
18199,1.02,0.18,-0.172,-0.07,7.17,2.09,-76.685,132.988,39.825,1,337
18221,1.024,0.188,-0.148,0.21,4.8,2.92,-76.854,128.22,39.749,1,406
18241,1.036,0.216,-0.132,0.97,3.2,3.83,-76.275,121.439,39.786,1,264
18262,1.032,0.216,-0.12,3.2,2.3,3.41,-76.541,119.063,39.726,1,302
18283,1.024,0.204,-0.152,5.15,-0.7,3.76,-76.054,126.699,39.726,1,320
18304,1.032,0.212,-0.06,3.62,-0.63,4.94,-77.954,105.81,39.726,1,327
18325,1.06,0.2,-0.156,-5.5,2.78,4.24,-76.746,125.001,39.726,1,333
18345,1.024,0.188,-0.136,1.18,0.63,5.63,-77.341,129.299,39.726,1,335
18367,1.008,0.172,-0.156,5.43,5.36,2.71,-76.583,132.988,39.802,1,346
18387,0.984,0.172,-0.184,-0.21,8.21,1.46,-75.648,136.941,39.615,1,345
18408,0.968,0.152,-0.152,-0.63,6.75,1.81,-77.485,135.01,39.749,1,350
18429,0.988,0.176,-0.16,-1.67,4.59,3.69,-76.469,132.283,39.996,1,360
18450,1.004,0.208,-0.144,-0.28,1.11,3.9,-75.863,124.704,39.822,1,344
18471,1.012,0.224,-0.128,-0.21,-3.06,4.38,-75.704,119.754,39.822,1,325
18492,1.04,0.2,-0.104,-3.62,-4.17,3.69,-78.237,122.238,39.822,1,327
18513,1.032,0.196,-0.128,-2.71,-5.98,4.87,-76.679,122.409,39.822,1,321
18534,1.056,0.22,-0.144,0.14,-3.83,5.22,-75.627,125.349,39.822,1,327
18554,1.04,0.196,-0.116,-3.34,-2.99,4.59,-77.653,120.627,39.67,1,340
18576,1.048,0.164,-0.12,-2.57,-3.48,3.83,-79.032,126.203,39.592,1,326
18596,1.072,0.168,-0.14,-0.9,-5.29,-0.28,-78.476,129.815,39.493,1,324
18618,1.052,0.2,-0.152,-2.23,-1.18,-1.39,-76.576,127.244,39.538,1,331
18638,1.056,0.2,-0.124,-4.87,2.09,-0.28,-77.443,121.808,39.471,1,333
18660,1.056,0.216,-0.104,-6.68,6.26,5.15,-76.68,112.488,39.471,1,314
18680,1.06,0.244,-0.124,-12.24,13.36,11.13,-74.896,124.145,39.471,1,316
18702,1.032,0.184,-0.168,-8.97,13.5,10.71,-76.432,132.407,39.471,1,300
18722,1.016,0.14,-0.14,-4.45,7.17,6.33,-78.979,135.01,39.471,1,326
18744,1.012,0.124,-0.132,-0.97,5.98,0.14,-79.86,136.8,39.469,1,330
18764,1.02,0.172,-0.132,-4.1,6.68,1.25,-78.005,127.514,39.39,1,330
18785,1.024,0.212,-0.144,-2.57,8.28,5.63,-75.955,124.195,39.473,1,330
18806,1.024,0.188,-0.148,-1.25,9.04,4.38,-78.089,131.997,39.519,1,360
18827,1.02,0.144,-0.128,-1.18,6.61,1.25,-78.611,131.83,39.701,1,366
18848,1.008,0.168,-0.144,-2.85,4.66,2.09,-75.904,127.244,39.707,1,261
18869,1,0.22,-0.124,1.11,6.89,1.04,-75.833,119.416,39.707,1,325
18890,1.02,0.2,-0.148,-3.2,9.74,0.7,-76.297,126.511,39.707,1,326
18911,1.012,0.156,-0.132,-6.12,8.21,-0.14,-78.59,130.246,39.707,1,332
18931,0.972,0.152,-0.164,-5.15,6.4,3.13,-77.05,137.185,39.665,1,329
18953,1.024,0.192,-0.124,1.67,2.16,3.2,-77.423,122.865,39.686,1,346
18973,1.032,0.184,-0.14,-4.38,4.8,0.42,-77.81,138.023,39.691,1,343
18995,0.968,0.124,-0.14,-1.18,2.43,-0.42,-78.611,131.643,39.71,1,349
19015,0.968,0.18,-0.116,3.62,-0.83,1.04,-77.251,114.784,39.701,0,344
19037,1.048,0.196,-0.08,3.13,3.55,0.42,-78.586,112.212,39.747,0,330
19057,1.008,0.16,-0.124,-0.49,7.23,-0.56,-78.651,127.785,39.747,0,336
19079,1.004,0.196,-0.136,-3.27,8.35,3.34,-76.639,124.765,39.747,0,315
19099,1.032,0.228,-0.124,-1.67,6.26,6.26,-75.889,118.549,39.747,0,312
19121,1.044,0.16,-0.14,2.64,5.08,2.43,-78.495,131.196,39.733,0,321
19141,1.012,0.136,-0.108,-1.67,6.68,3.2,-78.674,135.01,39.834,0,317
19162,0.968,0.156,-0.14,-2.57,5.63,5.63,-77.552,116.574,39.78,0,320
19183,1.008,0.204,-0.08,3.62,3.06,9.11,-77.345,114.371,40.062,0,316
19204,1.032,0.184,-0.1,2.37,9.81,7.72,-78.535,118.532,39.854,0,303
19225,0.944,0.152,-0.112,-2.5,13.5,4.38,-78.695,126.394,39.735,0,301
19246,0.964,0.156,-0.092,0.28,8.83,5.7,-79.366,120.539,39.735,0,310
19267,1.032,0.184,-0.076,8.21,1.04,7.1,-79.087,112.451,39.735,0,314
19288,1.076,0.22,-0.048,7.23,1.53,5.22,-78.186,102.316,39.735,0,320
19309,1.096,0.216,-0.088,1.46,5.22,2.02,-78.928,113.758,39.735,0,331
19330,1.136,0.2,-0.08,-1.18,0.56,3.55,-78.792,109.73,39.58,0,330
19351,1.1,0.212,-0.08,-0.97,-0.56,3.41,-78.644,111.81,39.606,0,326
19372,1.036,0.196,-0.088,-0.35,4.03,0.63,-78.29,114.188,39.55,0,317
19392,1.02,0.196,-0.072,-1.81,8.07,-0.28,-78.437,110.179,39.57,0,302
19414,1.02,0.164,-0.092,0,7.58,-0.07,-79.56,119.3,39.544,0,353
19434,1.004,0.144,-0.084,2.09,4.66,2.16,-80.578,120.265,39.544,0,301
19456,0.992,0.164,-0.076,2.78,3.48,5.22,-79.679,114.872,39.544,0,264
19476,0.992,0.184,-0.056,3.62,4.87,5.84,-78.534,110.964,39.544,0,320
19497,0.976,0.172,-0.148,5.01,7.37,5.63,-79.4,117.13,39.544,0,338
19518,0.988,0.172,-0.068,0.35,5.63,7.93,-79.32,113.364,39.61,0,341
19538,1.028,0.184,-0.092,-1.67,3.62,8.14,-78.69,116.574,39.594,0,341
19560,1.024,0.184,-0.08,3.62,2.02,3.41,-78.92,113.507,39.482,0,340
19580,1.064,0.192,-0.088,0.35,-1.11,-2.43,-78.778,114.632,39.439,0,327
19602,1.068,0.188,-0.068,-1.81,-2.57,-2.64,-79.403,109.893,39.55,0,331
19622,1.056,0.18,-0.064,-1.39,-0.77,0.49,-79.751,109.581,39.55,0,344
19644,1.072,0.192,-0.08,-4.38,1.88,2.37,-78.958,116.084,39.55,0,343
19664,1.056,0.18,-0.084,-4.24,1.67,2.09,-80.47,111.326,39.55,0,334
19686,1.028,0.164,-0.064,-3.13,1.6,-0.21,-80.857,112.842,39.55,0,336
19706,1.008,0.156,-0.092,0.14,3.06,-0.63,-79.82,120.539,39.624,0,326
19727,0.996,0.164,-0.052,-0.56,4.73,2.16,-80.206,107.6,39.598,0,323
19748,1.012,0.168,-0.1,-0.21,7.17,5.15,-79.071,120.772,39.808,0,318
19769,1.02,0.168,-0.064,0.9,3.55,3.83,-80.01,110.863,39.82,0,310
19790,1.024,0.18,-0.052,1.81,4.1,4.31,-79.637,106.121,39.757,0,301
19811,1.024,0.192,-0.08,1.81,4.94,1.74,-78.303,118.018,39.757,0,308
19832,1.032,0.196,-0.08,3.69,3.9,1.04,-78.653,110.179,39.757,0,309
19853,1.04,0.196,-0.072,2.37,4.8,2.43,-78.653,110.179,39.757,0,313
19874,1.032,0.18,-0.076,2.3,6.19,3.13,-79.285,112.899,39.757,0,326
19895,1.04,0.176,-0.06,1.81,5.91,2.57,-79.869,108.833,39.968,0,326
19915,1.032,0.176,-0.056,4.31,5.22,2.16,-79.859,107.658,39.871,0,324
19937,1.012,0.172,-0.056,3.55,5.57,3.13,-79.872,108.042,39.74,0,323
19957,1.024,0.184,-0.06,2.92,5.08,4.52,-78.683,104.582,39.698,0,317
19979,1.032,0.196,-0.052,1.95,5.7,4.38,-78.584,105.65,39.712,0,328
19999,1.024,0.192,-0.056,2.3,5.36,3.97,-78.996,106.268,39.712,0,328
20021,1.024,0.192,-0.06,2.3,5.22,4.38,-78.892,107.362,39.712,0,325
20041,1.02,0.188,-0.056,1.88,5.5,5.08,-79.12,106.595,39.712,0,327
20063,1.02,0.18,-0.064,1.88,5.15,5.15,-79.398,109.581,39.712,0,395
20083,1.024,0.168,-0.048,1.81,5.29,4.73,-80.323,105.953,39.68,0,329
20105,1.02,0.18,-0.036,1.88,4.66,1.95,-79.804,101.317,39.617,0,271
20125,1.024,0.184,-0.052,4.03,3.76,0.07,-79.076,119.176,39.809,0,343
20147,1.016,0.168,-0.06,4.73,2.99,1.74,-80.176,95.201,39.8,0,345
20167,1.024,0.168,-0.052,-1.67,7.72,2.09,-80.269,93.907,39.578,0,338
20188,1.02,0.18,-0.06,-1.25,8.28,3.55,-79.468,108.443,39.578,0,345
20209,1.032,0.184,-0.016,3.13,5.22,4.45,-79.859,94.977,39.578,0,352
20230,1.032,0.184,-0.056,2.23,6.68,3.13,-79.449,106.935,39.578,0,361
20251,1.024,0.176,-0.04,1.18,5.63,3.34,-80.01,102.812,39.578,0,376
20272,1.028,0.184,-0.036,1.88,5.01,4.17,-79.67,101.078,39.72,0,387
20293,1.036,0.184,-0.044,1.18,4.8,4.17,-80.123,102.812,39.689,0,384
20314,1.036,0.172,-0.036,1.39,3.83,4.31,-80.506,103.4,39.703,0,362
20334,1.028,0.168,-0.04,0.63,3.48,4.59,-80.774,101.048,39.808,0,336
20356,1.028,0.172,-0.04,-0.28,2.71,5.7,-80.259,103.099,39.637,0,312
20376,1.02,0.172,-0.024,0.7,3.13,5.98,-80.343,97.951,39.637,0,312
20398,1.024,0.164,-0.056,3.62,3.55,5.5,-80.4,108.861,39.637,0,319
20418,1.024,0.168,-0.008,3.62,0.9,5.84,-80.678,92.733,39.637,0,324
20440,1.028,0.156,-0.028,4.52,1.95,4.94,-81.241,100.183,39.637,0,333
20460,1.028,0.18,-0.008,3.48,2.16,5.29,-80.177,92.552,39.578,0,338
20482,1.04,0.184,0,1.32,3.2,5.43,-79.757,88.788,39.472,0,336
20502,1.04,0.18,-0.024,1.46,3.06,4.38,-80.542,103.4,39.296,0,336
20523,1.024,0.164,-0.032,1.95,1.25,4.52,-80.738,101.048,39.369,0,330
20544,1.028,0.176,-0.056,0.42,-0.7,4.94,-79.821,107.658,39.52,0,316
20564,1.02,0.172,-0.052,1.11,-0.21,5.98,-80.015,106.829,39.52,0,317
20586,1.024,0.16,-0.04,0.07,0.42,6.05,-80.857,104.044,39.52,0,320
20606,1.02,0.168,-0.032,0,0.83,4.87,-80.488,100.792,39.52,0,334
20627,1.024,0.184,-0.028,0.28,0.63,4.38,-80.236,100.547,39.52,0,327
20648,1.02,0.164,-0.036,1.74,-1.46,0.49,-80.518,102.102,39.407,0,338
20669,1.024,0.172,-0.048,0.14,-0.83,0.63,-80.026,108.042,39.15,0,335
20690,1.024,0.16,-0.028,0.56,-0.56,2.71,-80.993,99.934,39.014,0,446
20711,1.036,0.156,-0.024,0.49,-0.35,3.34,-81.344,98.753,39.339,0,242
20732,1.036,0.176,-0.028,-2.37,-0.9,3.34,-80.245,99.047,39.421,0,277
20753,1.028,0.156,-0.064,5.08,-2.16,1.95,-80.691,112.314,39.421,0,313
20774,1.032,0.176,-0.008,0.42,-3.34,2.02,-80.318,92.609,39.421,0,325
20795,1.04,0.184,-0.032,-5.63,-0.28,2.3,-80.259,103.099,39.421,0,332
20815,1.024,0.164,-0.06,-0.7,-0.63,4.87,-81.051,103.002,39.421,0,345
20837,1.02,0.152,-0.024,4.8,-4.03,3.9,-81.423,100.445,39.536,0,361
20857,1.028,0.164,-0.052,3.34,-4.1,1.39,-80.505,107.6,38.985,0,364
20879,1.02,0.18,-0.048,-0.28,-4.73,2.57,-79.656,104.939,39.04,0,376
20899,1.024,0.16,-0.048,0.9,-4.1,3.76,-80.741,106.707,39.065,0,382
20921,1.028,0.172,-0.048,-0.35,-2.71,3.2,-80.151,105.601,38.915,0,367
20941,1.032,0.168,-0.048,-0.35,-2.02,2.23,-80.397,105.953,38.902,0,347
20963,1.028,0.172,-0.056,-0.28,-1.04,1.81,-80.437,108.861,38.902,0,321
20983,1.032,0.164,-0.056,-0.97,-0.07,1.6,-80.433,105.953,38.902,0,307
21004,1.04,0.152,-0.084,0.77,0.77,1.81,-80.812,106.707,38.902,0,311
21025,1.028,0.164,-0.072,1.95,0.56,1.95,-80.122,113.711,38.951,0,327
21046,1.032,0.168,-0.044,1.04,-0.14,2.37,-80.454,104.684,38.994,0,324
21067,1.032,0.16,-0.056,1.25,0.63,1.32,-80.678,109.298,39.119,0,321
21088,1.032,0.156,-0.06,1.11,0.07,2.02,-80.806,111.046,38.958,0,318
21109,1.032,0.168,-0.056,0.83,0.14,3.55,-80.269,108.443,38.954,0,303
21130,1.036,0.16,-0.056,1.32,0.49,3.2,-80.505,107.6,38.934,0,299
21150,1.032,0.164,-0.04,2.16,0.49,1.88,-80.542,103.4,38.934,0,302
21172,1.032,0.172,-0.052,2.3,0.83,1.18,-79.995,109.239,38.934,0,306
21192,1.024,0.184,-0.064,3.06,0.07,1.67,-79.234,109.187,38.934,0,318
21214,1.028,0.188,-0.044,2.02,0.35,1.81,-79.368,103.18,38.962,0,330
21234,1.024,0.184,-0.08,0.56,0.21,1.46,-78.92,113.507,39.147,0,344
21256,1.016,0.168,-0.068,1.04,-1.53,1.11,-79.892,112.044,39.139,0,326
21276,1.024,0.16,-0.072,0.83,-1.74,-0.9,-80.283,114.236,39.145,0,315
21298,1.024,0.176,-0.076,-2.64,-1.67,1.04,-79.203,112.899,39.193,0,307
21318,1.024,0.168,-0.076,-0.63,-2.16,2.85,-80.496,110.564,39.281,0,391
21339,1.028,0.164,-0.06,1.74,-2.23,2.64,-80.365,110.103,39.281,0,317
21360,1.036,0.176,-0.048,-1.39,-2.09,2.23,-80.019,105.263,39.281,0,177
21381,1.032,0.168,-0.1,0.56,-2.16,2.57,-79.278,120.772,39.281,0,322
21402,1.02,0.152,-0.06,2.99,-3.62,3.48,-80.904,111.549,39.281,0,345
21423,1.036,0.164,-0.068,-2.02,-0.21,2.85,-80.282,112.529,39.178,0,350
21444,1.024,0.172,-0.1,-1.6,0.21,5.01,-79.612,116.574,39.222,0,356
21465,1.028,0.164,-0.068,3.97,-3.13,4.66,-80.227,118.309,39.329,0,361
21486,1.024,0.156,-0.096,4.03,-2.78,4.17,-79.883,117.13,39.333,0,359
21507,1.036,0.18,-0.08,5.36,-4.45,0.49,-79.241,113.971,39.224,0,368
21528,1.024,0.184,-0.088,2.85,-2.43,0.83,-78.741,115.568,39.224,0,379
21549,1.024,0.168,-0.092,0.63,-0.49,2.3,-79.411,118.715,39.224,0,381
21569,1.02,0.164,-0.096,3.13,-0.83,2.37,-79.452,120.352,39.224,0,363
21591,1.02,0.172,-0.092,2.71,-2.37,-0.14,-79.18,118.15,39.224,0,338
21611,1.02,0.168,-0.092,2.64,-2.64,-1.04,-79.37,118.715,39.207,0,312
21633,1.032,0.168,-0.108,3.06,-0.97,-0.49,-79.362,117.104,39.28,0,310
21653,1.028,0.184,-0.08,3.06,-0.28,1.25,-79.012,118.619,39.167,0,307
21675,1.032,0.192,-0.092,2.43,-0.97,1.46,-78.349,115.611,39.356,0,296
21695,1.032,0.184,-0.08,3.34,-1.95,0.77,-79.004,113.507,39.214,0,292
21716,1.04,0.192,-0.08,1.11,-1.88,0.14,-78.696,112.628,39.214,0,299
21737,1.036,0.192,-0.096,-0.49,-1.18,1.88,-78.3,116.574,39.214,0,303
21757,1.032,0.188,-0.084,1.25,-1.6,2.43,-78.722,114.084,39.214,0,304
21779,1.028,0.18,-0.092,1.32,-1.53,1.6,-79.402,117.104,39.214,0,321
21799,1.028,0.184,-0.096,1.88,-1.25,1.25,-78.549,117.561,39.447,0,324
21821,1.028,0.188,-0.096,0.56,-0.56,1.88,-78.121,116.574,39.334,0,326
21841,1.024,0.184,-0.1,0.63,0.49,1.6,-78.448,118.532,39.445,0,331
21863,1.024,0.188,-0.1,1.95,0.28,1.18,-78.259,118.018,39.588,0,329
21883,1.032,0.184,-0.084,3.13,0.7,0.63,-78.917,114.546,39.471,0,302
21905,1.032,0.184,-0.1,1.39,1.32,1.39,-78.535,118.532,39.471,0,309
21925,1.032,0.196,-0.096,0.56,1.6,2.37,-78.065,116.104,39.471,0,314
21946,1.032,0.196,-0.096,0.83,1.11,1.74,-78.203,117.521,39.471,0,489
21967,1.028,0.188,-0.1,0.21,0.63,1.53,-78.159,117.521,39.471,0,240
21988,1.024,0.196,-0.1,-4.24,-0.9,2.23,-77.974,116.104,39.497,0,290
22009,1.016,0.168,-0.144,3.55,-2.09,1.74,-77.719,130.611,39.297,0,332
22030,1.028,0.172,-0.084,2.5,-2.5,0.83,-79.458,116.038,39.575,0,337
22051,1.028,0.188,-0.108,-3.97,0,1.04,-78.096,119.885,39.499,1,337
22072,1.016,0.184,-0.156,-0.56,-2.92,3.62,-76.649,130.302,39.667,1,338
22092,1.016,0.18,-0.108,6.12,-8.07,4.1,-78.332,120.973,39.667,1,351
22114,1.028,0.192,-0.104,6.61,-10.5,2.23,-77.776,117.483,39.667,1,364
22134,1.036,0.204,-0.1,1.46,-8.35,2.23,-77.353,117.448,39.667,1,383
22156,1.036,0.196,-0.1,1.88,-7.65,3.76,-78.678,117.561,39.667,1,405
22176,1.048,0.184,-0.088,4.73,-5.22,4.31,-78.993,115.568,39.228,1,399
22198,1.052,0.192,-0.108,2.57,-1.88,3.83,-78.179,119.367,39.386,1,372
22218,1.04,0.192,-0.104,0.56,-1.53,3.48,-78.148,118.452,39.423,1,334
22239,1.032,0.176,-0.12,3.2,-0.9,2.3,-78.343,124.296,39.518,1,317
22260,1.032,0.2,-0.112,0.97,-2.5,2.99,-77.483,119.258,39.502,1,305
22281,1.036,0.204,-0.128,0.83,-0.83,2.85,-76.819,125.547,39.502,1,315
22302,1.032,0.192,-0.112,1.6,-1.53,2.23,-78.775,116.574,39.502,1,320
22323,1.036,0.188,-0.104,1.6,-1.81,0.63,-78.26,121.338,39.502,1,322
22344,1.032,0.188,-0.116,0.28,-0.07,0.07,-77.923,121.684,39.502,1,324
22365,1.032,0.192,-0.1,2.71,0.97,-0.9,-78.159,117.521,39.261,1,329
22385,1.044,0.192,-0.108,-0.35,4.31,-2.57,-78.091,119.367,39.334,1,328
22407,1.036,0.184,-0.144,-0.63,4.1,-2.85,-77.296,128.056,39.649,1,319
22427,1.028,0.176,-0.136,2.3,3.62,-0.77,-77.797,127.704,39.592,1,316
22449,1.028,0.196,-0.136,1.39,2.71,2.3,-76.884,123.434,39.819,1,302
22469,1.036,0.204,-0.116,0.35,2.57,2.16,-76.8,120.81,39.819,1,315
22491,1.032,0.204,-0.12,1.6,1.6,1.6,-76.821,122.115,39.819,1,308
22511,1.032,0.208,-0.12,-0.14,1.32,1.95,-76.907,119.99,39.819,1,305
22532,1.024,0.192,-0.144,-2.85,2.09,2.3,-76.815,126.879,39.819,1,314
22553,1.02,0.188,-0.124,-1.39,0.77,2.57,-77.555,123.417,39.803,1,389
22574,1.024,0.184,-0.128,-0.77,0.83,2.43,-77.659,124.834,40.005,1,333
22595,1.02,0.196,-0.12,-3.55,0.21,3.55,-77.308,121.486,39.935,1,198
22616,1.016,0.192,-0.16,-2.5,0.14,3.41,-75.184,140.422,39.951,1,316
22637,1,0.188,-0.176,-2.43,-1.95,5.29,-78.351,113.638,39.85,1,311
22658,1.028,0.196,-0.1,-6.4,0.14,4.94,-76.858,119.99,39.85,1,318
22678,1.024,0.192,-0.168,-1.18,-1.88,4.66,-76.016,131.196,39.85,1,325
22700,1.036,0.196,-0.12,4.45,-2.57,3.06,-77.498,121.486,39.85,1,334
22720,1.048,0.196,-0.152,-0.28,0.7,2.09,-76.69,127.803,39.85,1,344
22742,1.032,0.184,-0.116,1.04,-0.49,3.2,-78.104,122.238,39.777,1,364
22762,1.032,0.184,-0.128,1.81,-1.6,3.9,-77.752,124.834,39.694,1,374
22784,1.02,0.196,-0.128,0.07,-0.42,3.97,-76.645,126.314,39.842,1,371
22804,1.02,0.196,-0.14,0.28,-0.35,2.85,-76.719,125.547,39.724,1,349
22824,1.024,0.196,-0.128,1.6,0.21,2.16,-77.471,122.865,39.847,1,311
22846,1.036,0.188,-0.124,2.3,0.49,2.37,-77.741,123.417,39.847,1,294
22866,1.028,0.196,-0.156,-0.14,1.11,2.85,-76.311,128.526,39.847,1,288
22888,1.024,0.204,-0.112,-1.53,1.88,3.13,-77.202,118.776,39.847,1,299
22908,1.02,0.192,-0.156,-1.18,1.88,2.85,-76.373,129.103,39.847,1,301
22930,1.008,0.188,-0.136,-2.99,-0.21,2.57,-77.042,125.891,39.811,1,317
22950,1.012,0.188,-0.148,-6.26,-1.11,3.41,-76.664,126.879,39.726,1,320
22972,1.008,0.196,-0.136,-5.08,-3.41,4.45,-76.684,123.434,39.716,1,320
22992,1.012,0.196,-0.144,-1.46,-3.62,3.55,-76.719,125.547,39.682,1,316
23013,1.04,0.196,-0.144,-2.64,-2.85,3.69,-76.843,126.314,39.663,1,301
23034,1.032,0.192,-0.14,-3.13,-1.81,5.08,-77.039,126.108,39.676,1,304
23055,1.036,0.196,-0.152,-2.99,-0.7,4.8,-76.542,127.803,39.676,1,316
23076,1.044,0.208,-0.144,-2.5,0.28,3.97,-76.384,124.704,39.676,1,313
23097,1.048,0.2,-0.136,-3.62,0.21,3.41,-77.01,124.225,39.676,1,309
23117,1.02,0.184,-0.148,-2.09,-0.42,4.24,-76.736,129.569,39.69,1,327
23139,1.02,0.188,-0.16,-2.02,-0.35,3.69,-77.049,130.189,39.518,1,388
23159,1.024,0.18,-0.148,-2.85,1.25,3.48,-77.271,128.669,39.631,1,309
23181,1.012,0.188,-0.132,-3.69,2.85,3.41,-77.217,125.083,39.744,1,251
23201,1.004,0.2,-0.18,-4.38,4.45,5.01,-75.003,131.997,39.513,1,306
23223,1.008,0.2,-0.128,-4.45,0.7,7.58,-76.75,122.628,39.459,1,312
23243,1.036,0.188,-0.116,-8.35,0.77,5.01,-77.969,121.684,39.459,1,312
23264,1.024,0.188,-0.172,-3.13,-1.6,5.22,-76.032,132.465,39.459,1,322
23285,1.056,0.2,-0.128,1.6,-1.04,4.66,-77.13,126.314,39.459,1,332
23306,1.064,0.192,-0.16,-3.34,2.92,3.48,-77.214,129.695,39.459,1,348
23327,1.048,0.172,-0.14,-1.39,2.09,4.1,-78.01,128.343,39.419,1,355
23348,1.032,0.188,-0.124,-0.42,0.42,3.55,-77.695,123.417,39.3,1,366
23368,1.04,0.192,-0.148,-0.77,-0.56,2.43,-76.884,127.636,39.13,1,361
23390,1.032,0.184,-0.14,1.39,-0.83,2.5,-77.378,127.276,39.237,1,329
23410,1.032,0.176,-0.144,0.56,-1.6,1.88,-77.579,129.299,39.31,1,311
23432,1.004,0.172,-0.12,3.69,-1.18,3.13,-78.207,124.912,39.31,1,306
23452,1.016,0.164,-0.16,6.89,-0.77,1.6,-77.089,135.01,39.31,1,306
23474,1.036,0.172,-0.112,4.73,0.97,0.83,-78.034,123.12,39.31,1,317
23494,1.028,0.176,-0.184,5.08,0.7,1.04,-76.643,135.669,39.31,1,334
23515,1.032,0.184,-0.136,6.12,-0.28,2.64,-77.505,126.479,39.404,1,332
23536,1.036,0.196,-0.172,2.5,1.74,4.38,-75.877,131.278,39.222,1,329
23557,1.036,0.192,-0.168,1.88,2.5,4.73,-76.171,131.196,39.4,1,322
23578,1.044,0.2,-0.156,0.83,1.81,5.08,-76.35,127.964,39.538,1,319
23599,1.04,0.184,-0.16,1.25,3.27,2.64,-76.811,131.019,39.518,1,298
23620,1.036,0.176,-0.16,-1.18,2.78,2.37,-77.349,130.07,39.518,1,316
23641,1.024,0.188,-0.144,-1.74,1.39,3.13,-77.33,127.276,39.518,1,312
23661,1.032,0.18,-0.148,-1.25,3.13,1.81,-77.249,128.056,39.518,1,316
23683,0.988,0.16,-0.156,-3.34,4.59,0.63,-77.261,134.285,39.518,1,328
23703,0.996,0.152,-0.16,-3.06,2.92,2.71,-77.512,136.479,39.467,1,322
23725,1.044,0.2,-0.168,-5.63,-0.07,4.31,-75.959,130.04,39.407,1,387
23745,1.028,0.212,-0.16,-3.06,1.67,3.48,-75.519,127.052,39.525,1,287
23767,1.044,0.184,-0.124,1.25,3.69,-0.49,-78.007,123.986,39.455,1,341
23787,1.016,0.152,-0.192,-1.74,1.6,0.83,-77.155,130.07,39.471,1,310
23808,1.004,0.2,-0.112,-7.93,1.18,4.1,-74.211,128.669,39.471,1,326
23829,1.008,0.216,-0.18,-5.7,3.41,3.34,-76.416,127.066,39.471,1,322
23849,0.964,0.168,-0.16,-3.55,2.92,0.07,-76.474,133.613,39.471,1,330
23871,0.96,0.184,-0.18,-1.67,5.01,2.37,-74.996,134.38,39.471,1,347
23891,0.996,0.212,-0.16,-0.9,6.96,3.55,-75.074,127.052,39.54,1,362
23912,1.004,0.168,-0.144,-0.07,4.66,-0.97,-77.577,130.611,39.709,1,351
23933,1.02,0.136,-0.132,0.56,2.99,-2.85,-79.48,134.155,39.568,1,348
23954,1.036,0.164,-0.156,0.63,0.7,-1.32,-77.495,130.825,39.632,1,341
23975,1.028,0.18,-0.152,0.83,1.32,-1.95,-76.068,132.407,39.7,1,326
23996,1.008,0.18,-0.156,1.74,2.57,-0.49,-77.628,127.082,39.7,1,309
24017,1.064,0.196,-0.168,1.39,0.7,-2.78,-76.368,130.611,39.7,1,314
24038,1.024,0.196,-0.104,-0.9,2.43,-1.53,-77.78,117.96,39.7,1,315
24058,1.012,0.188,-0.168,-1.67,2.3,1.67,-76.016,131.794,39.7,1,332
24080,1.032,0.188,-0.108,-0.97,2.78,1.6,-78.141,119.885,39.946,0,329
24100,1.032,0.18,-0.156,-4.31,3.83,-0.07,-77.009,130.924,39.858,0,322
24122,0.996,0.164,-0.148,-2.57,2.99,2.85,-76.954,130.07,40.287,0,323
24142,1.004,0.192,-0.14,-0.9,1.67,4.73,-75.605,123.216,40.112,0,325
24164,1.04,0.22,-0.14,-2.16,3.2,3.34,-75.703,125.143,40.245,0,317
24184,1,0.18,-0.156,-4.73,4.03,3.27,-76.608,130.924,40.245,0,311
24206,0.976,0.184,-0.14,-0.21,1.74,4.52,-76.678,127.276,40.245,0,322
24226,1.028,0.212,-0.124,1.53,1.6,4.17,-76.569,120.332,40.245,0,319
24247,1.032,0.22,-0.156,-0.63,4.59,3.48,-75.36,125.349,40.245,0,334
24268,1.012,0.196,-0.148,-1.81,5.08,3.83,-76.364,127.066,40.028,0,349
24289,1,0.176,-0.136,3.34,4.52,3.83,-77.168,125.083,40.039,0,392
24310,1.024,0.192,-0.124,5.08,5.08,2.09,-77.542,123.699,39.866,0,287
24331,1.052,0.2,-0.12,4.94,5.84,1.67,-77.586,116.574,39.753,0,348
24352,1.04,0.2,-0.168,4.87,2.43,2.5,-75.907,130.04,40.062,0,323
24373,1.036,0.204,-0.12,1.25,3.13,2.85,-77.137,120.474,40.062,0,328
24393,1.024,0.224,-0.152,-1.25,4.59,3.06,-75.198,124.169,40.062,0,335
24415,1.032,0.204,-0.136,5.77,1.95,1.95,-76.641,123.699,40.062,0,338
24435,1.028,0.188,-0.132,5.29,1.67,-1.18,-77.41,125.083,40.062,0,351
24457,1.008,0.188,-0.14,4.87,3.83,-1.88,-75.877,125.227,39.994,0,368
24477,0.988,0.208,-0.14,4.59,5.08,1.32,-76.582,123.434,40.098,0,368
24499,1.012,0.192,-0.124,8.63,3.13,-0.14,-77.659,124.834,40.059,0,369
24519,1.024,0.196,-0.132,5.29,2.09,-0.63,-77.011,123.968,40.233,0,348
24540,1.036,0.204,-0.12,5.57,2.78,1.04,-77.137,120.474,40.112,0,322
24561,1.036,0.224,-0.12,4.52,2.92,4.52,-76.224,118.187,40.112,0,316
24582,1.036,0.22,-0.116,5.84,6.33,5.08,-76.506,117.81,40.112,0,320
24603,1.04,0.224,-0.128,2.85,7.51,3.69,-76.074,119.754,40.112,0,320
24624,1.04,0.204,-0.112,3.06,6.75,2.16,-77.649,123.417,40.112,0,327
24645,1.02,0.2,-0.124,3.62,5.5,2.3,-77.305,117.021,40.361,0,343
24666,1.024,0.204,-0.1,3.83,4.38,2.16,-77.345,118.776,40.484,0,345
24687,1.028,0.2,-0.104,4.1,5.08,2.64,-77.637,117.483,40.298,0,342
24708,1.004,0.204,-0.124,3.06,7.1,3.83,-76.63,121.302,40.334,0,339
24728,1.016,0.204,-0.12,1.67,7.58,4.17,-76.892,120.474,40.386,0,323
24750,1.02,0.212,-0.104,-0.7,8.21,4.24,-76.971,116.14,40.386,0,323
24770,1.016,0.208,-0.104,-0.7,8.63,4.24,-77.113,116.574,40.386,0,324
24792,1.032,0.208,-0.104,1.6,6.54,3.41,-78.009,114.711,40.386,0,336
24812,1.032,0.204,-0.1,0.28,6.47,3.97,-77.78,116.574,40.386,0,337
24833,1.024,0.2,-0.104,-0.07,6.89,4.73,-77.307,116.574,40.391,0,346
24854,1.032,0.208,-0.1,-0.21,6.61,5.43,-77.4,115.685,40.4,0,348
24875,1.028,0.208,-0.1,0.21,5.98,4.66,-77.352,115.685,40.341,0,403
24896,1.028,0.192,-0.1,-1.18,5.5,4.17,-78.114,117.521,40.283,0,288
24916,1.032,0.2,-0.088,-2.43,4.31,4.87,-78.051,113.758,40.32,0,288
24938,1.024,0.196,-0.112,1.74,1.74,6.26,-77.574,119.754,40.34,0,327
24958,1.02,0.208,-0.08,2.23,0.21,7.23,-77.553,104.289,40.34,0,333
24980,1.032,0.232,-0.084,-9.81,5.98,5.22,-76.879,111.456,40.34,0,340
25000,1.024,0.204,-0.124,-5.98,4.66,3.9,-77.443,122.014,40.34,0,344
25022,1.02,0.188,-0.084,0.42,-0.63,4.73,-78.593,114.084,40.334,0,363
25042,1.024,0.204,-0.108,-2.57,1.6,3.41,-77.303,117.906,39.996,0,369
25063,1.028,0.2,-0.084,-3.48,2.43,3.55,-78.09,112.791,39.68,0,373
25084,1.028,0.192,-0.088,-1.81,2.71,3.97,-78.396,114.632,39.883,0,375
25105,1.044,0.188,-0.084,-0.63,3.76,3.55,-78.848,114.084,39.838,0,363
25126,1.044,0.184,-0.08,-0.42,4.45,3.06,-78.718,115.092,39.818,0,352
25147,1.028,0.192,-0.084,-0.77,4.59,3.69,-78.768,110.564,39.818,0,342
25168,1.028,0.184,-0.076,0,5.84,3.27,-79.285,112.899,39.818,0,346
25189,1.028,0.184,-0.064,-1.46,6.12,3.55,-79.275,109.187,39.818,0,355
25210,1.016,0.18,-0.088,-0.42,5.43,5.36,-78.85,116.062,39.838,0,358
25231,1.024,0.18,-0.068,0.83,4.24,5.15,-79.364,110.704,39.75,0,341
25251,1.024,0.18,-0.084,0.63,4.94,4.94,-79.028,115.025,39.696,0,321
25273,1.024,0.188,-0.064,1.46,4.31,5.63,-79.03,108.808,39.697,0,310
25293,1.036,0.184,-0.06,1.6,4.31,4.17,-79.001,109.893,39.636,0,294
25315,1.028,0.184,-0.068,3.55,4.24,1.95,-79.042,109.893,39.698,0,286
25335,1.04,0.188,-0.068,2.64,5.08,5.08,-79.235,108.808,39.698,0,291
25357,1.04,0.196,-0.076,1.81,5.15,6.26,-78.578,111.202,39.698,0,296
25377,1.032,0.192,-0.06,2.16,5.15,5.22,-78.976,107.362,39.698,0,301
25399,1.02,0.196,-0.084,-0.9,5.29,4.52,-78.198,113.207,39.698,0,317
25419,1.016,0.176,-0.08,-2.5,3.69,0.83,-79.232,114.452,39.637,0,318
25440,1.016,0.16,-0.076,-0.35,1.74,-2.71,-80.116,115.416,39.435,0,309
25461,1.012,0.168,-0.076,-1.04,0.83,0.21,-79.921,117.708,39.441,0,350
25482,1.02,0.172,-0.08,-1.39,0.97,2.64,-79.707,115.472,39.747,0,331
25503,1.024,0.164,-0.064,-2.02,0.83,3.55,-80.091,106.829,39.647,0,195
25524,1.032,0.172,-0.084,2.02,-1.46,2.43,-79.498,116.038,39.647,0,328
25545,1.028,0.176,-0.052,4.38,-2.99,2.99,-79.884,106.468,39.647,0,327
25566,1.04,0.184,-0.08,-0.7,0.97,2.78,-79.086,113.507,39.647,0,346
25587,1.024,0.18,-0.104,-4.1,2.64,3.97,-78.53,120.027,39.647,0,369
25608,1.028,0.16,-0.068,1.6,-1.74,3.48,-80.407,113.034,39.659,0,371
25628,1.024,0.168,-0.072,3.83,-1.04,4.17,-78.883,110.964,39.469,0,366
25650,1.024,0.2,-0.084,-3.41,1.88,4.8,-78.246,114.188,39.455,0,376
25670,1.032,0.184,-0.08,-1.39,1.74,3.97,-79.72,109.991,39.469,0,373
25692,1.024,0.18,-0.056,3.83,-0.56,2.37,-79.575,107.289,39.569,0,364
25712,1.032,0.196,-0.064,2.3,1.32,3.2,-78.707,108.091,39.569,0,358
25734,1.032,0.196,-0.076,-0.97,3.34,4.66,-78.492,111.202,39.569,0,336
25754,1.028,0.18,-0.044,0.9,2.85,3.83,-79.788,103.744,39.569,0,329
25776,1.028,0.164,-0.072,2.37,4.24,4.03,-80.122,113.711,39.569,0,334
25796,1.024,0.18,-0.06,0.9,2.99,3.97,-78.629,120.588,39.469,0,329
25817,1.02,0.172,-0.096,1.74,1.18,5.77,-79.098,107.708,39.642,0,329
25838,1.028,0.18,-0.068,3.97,1.11,5.01,-79.404,110.704,39.435,0,324
25859,1.028,0.204,-0.072,1.6,1.81,5.43,-78.122,109.448,39.341,0,318
25880,1.028,0.192,-0.068,0.63,2.37,6.12,-78.798,109.511,39.318,0,308
25901,1.028,0.188,-0.068,0.56,2.3,6.26,-79.001,109.893,39.318,0,309
25922,1.028,0.188,-0.06,1.46,-0.21,2.92,-79.139,107.708,39.318,0,310
25943,1.024,0.188,-0.06,1.67,-0.97,1.53,-78.916,109.893,39.318,0,306
25963,1.024,0.184,-0.064,-0.28,-0.9,4.8,-79.72,109.991,39.318,0,338
25985,1.036,0.172,-0.064,0.28,0.42,6.05,-79.792,108.833,39.11,0,332
26005,1.028,0.168,-0.072,1.04,0.9,4.31,-79.924,113.207,39.081,0,327
26027,1.024,0.172,-0.068,0.35,0.9,4.03,-79.768,111.58,39.23,0,318
26047,1.028,0.176,-0.076,0.97,0.21,4.31,-79.442,113.364,39.041,0,335
26068,1.032,0.172,-0.08,0.97,0.14,4.24,-79.59,114.952,38.993,0,431
26089,1.036,0.172,-0.076,0.35,0.49,3.76,-79.718,113.847,38.993,0,180
26110,1.028,0.168,-0.068,0.7,-1.74,1.11,-79.452,120.352,38.993,0,337
26131,1.016,0.16,-0.112,5.91,-4.38,-0.56,-79.096,118.15,38.993,0,327
26151,1.024,0.172,-0.088,-0.07,-1.25,2.43,-79.221,118.15,38.993,0,339
26173,1.012,0.148,-0.1,-2.37,-0.21,4.1,-79.996,124.055,39.238,0,351
26193,1.024,0.152,-0.06,3.2,-3.83,5.63,-80.939,111.549,38.966,0,361
26215,1.032,0.156,-0.08,5.36,-4.31,3.9,-80.365,117.158,39.142,0,363
26235,1.028,0.172,-0.08,1.74,-2.78,3.9,-79.551,114.952,38.784,0,371
26257,1.036,0.18,-0.088,1.11,-1.74,4.94,-79.06,116.062,38.859,0,376
26277,1.032,0.168,-0.088,2.16,-1.88,3.9,-79.17,116.574,38.859,0,382
26299,1.028,0.176,-0.092,1.67,-2.09,2.3,-79.303,118.15,38.859,0,375
26319,1.028,0.168,-0.084,1.11,-2.71,2.43,-79.262,118.15,38.859,0,343
26340,1.028,0.156,-0.088,0.7,-2.09,2.99,-80.122,119.436,38.859,0,333
26361,1.024,0.156,-0.108,2.57,-0.56,2.99,-79.509,124.704,38.997,0,330
26382,1.028,0.168,-0.088,2.3,-0.77,2.3,-79.553,117.655,38.668,0,332
26403,1.028,0.164,-0.104,1.18,-1.25,2.09,-79.308,122.39,38.831,0,329
26424,1.028,0.156,-0.092,1.81,-2.57,1.67,-80.014,120.539,38.843,0,328
26445,1.036,0.168,-0.116,1.04,-2.3,2.57,-79.113,117.606,38.924,0,312
26466,1.032,0.188,-0.1,-0.7,-1.81,3.69,-78.434,118.018,38.924,0,310
26487,1.04,0.18,-0.104,-0.97,-1.39,3.76,-78.369,120.42,38.924,0,311
26508,1.036,0.18,-0.116,-1.18,-1.32,2.99,-78.327,122.809,38.924,0,314
26529,1.032,0.18,-0.108,-3.34,-0.14,2.92,-78.508,120.973,38.924,0,323
26550,1.024,0.176,-0.116,-4.17,0.21,2.5,-78.374,123.398,38.849,0,321
26570,1.024,0.172,-0.112,-4.03,0.49,2.3,-78.672,123.08,38.815,0,333
26592,1.02,0.16,-0.128,-3.69,-0.49,1.39,-78.647,128.669,38.654,0,321
26612,1.028,0.152,-0.116,-3.34,-0.77,1.11,-79.126,127.578,38.525,0,311
26634,1.024,0.156,-0.116,-2.09,-1.32,0.9,-79.208,125.001,38.561,0,301
26654,1.028,0.156,-0.116,-1.46,-1.04,1.53,-79.338,126.643,38.561,0,356
26676,1.032,0.164,-0.104,0.14,-1.67,2.02,-79.349,122.39,38.561,0,351
26696,1.036,0.168,-0.088,-0.83,-1.6,2.5,-79.632,117.655,38.561,0,150
26718,1.036,0.172,-0.116,1.95,-1.6,2.5,-78.682,124.006,38.561,0,321
26738,1.024,0.18,-0.12,3.83,-2.23,2.99,-78.077,123.699,38.62,0,342
26759,1.032,0.176,-0.104,1.25,-0.77,2.16,-78.801,120.588,38.896,0,344
26780,1.036,0.176,-0.128,-0.21,0.7,1.67,-77.666,128.51,38.851,0,345
26801,1.028,0.176,-0.124,3.06,-1.67,2.57,-78.693,125.547,38.714,0,355
26822,1.032,0.176,-0.124,4.87,-2.5,0.9,-78.148,122.238,38.681,0,354
26843,1.048,0.184,-0.088,3.48,-1.53,0.14,-78.993,115.568,38.681,0,367
26864,1.048,0.188,-0.1,2.09,-0.21,0.56,-78.52,118.018,38.681,0,382
26885,1.044,0.184,-0.116,0.42,0.7,2.02,-78.237,122.238,38.681,1,385
26906,1.04,0.176,-0.104,1.67,-1.81,2.43,-78.885,120.588,38.681,1,369
26927,1.032,0.172,-0.112,2.85,-5.08,2.3,-78.757,123.08,38.715,1,346
26947,1.028,0.164,-0.124,6.05,-6.82,2.57,-78.709,131.091,38.856,1,324
26969,1.04,0.156,-0.136,9.46,-9.74,1.53,-79.249,121.768,38.891,1,320
26989,1.044,0.176,-0.116,9.67,-6.12,0,-77.743,130.72,38.923,1,317
27011,1.036,0.192,-0.132,7.93,-5.5,-0.97,-77.331,124.518,38.939,1,304
27031,1.032,0.192,-0.132,6.33,-5.01,0.14,-77.283,124.518,38.892,1,310
27053,1.028,0.184,-0.124,4.31,-3.62,0.14,-77.826,123.986,38.892,1,309
27073,1.02,0.188,-0.164,4.03,-3.2,0.83,-76.262,131.109,38.892,1,313
27094,1.016,0.18,-0.128,5.15,-4.94,2.02,-77.741,125.426,38.892,1,320
27115,1.012,0.18,-0.136,3.76,-4.1,2.78,-77.572,128.51,38.88,1,334
27136,1.028,0.172,-0.136,4.03,-2.99,1.39,-78.053,126.037,39.1,1,334
27157,1.036,0.18,-0.132,3.13,-3.2,2.02,-77.826,123.986,39.104,1,335
27177,1.028,0.188,-0.148,0.7,-2.16,1.74,-76.903,128.22,39.264,1,344
27199,1.044,0.188,-0.144,-0.77,-0.42,1.39,-77.225,127.46,39.125,1,310
27219,1.04,0.188,-0.152,-1.46,0.14,2.3,-76.919,128.965,39.18,1,311
27240,1.04,0.192,-0.156,-1.18,1.11,3.76,-76.625,129.103,39.18,1,311
27261,1.04,0.18,-0.148,-0.14,0.7,3.13,-77.376,129.437,39.18,1,441
27282,1.044,0.176,-0.144,0.21,1.25,2.02,-77.63,125.665,39.18,1,246
27303,1.032,0.18,-0.136,-2.5,1.18,2.64,-77.415,128.669,39.2,1,304
27324,1.028,0.18,-0.18,0.07,0.77,2.85,-74.209,144.565,39.084,1,325
27345,1.016,0.172,-0.116,2.3,-3.13,3.9,-78.465,124.006,39.1,1,328
27366,1.016,0.184,-0.152,-4.31,0.83,2.78,-76.786,129.569,39.156,1,337
27386,1.024,0.188,-0.196,-3.27,1.32,3.69,-75.151,136.204,39.03,1,330
27408,1.036,0.184,-0.132,1.81,-0.42,2.78,-77.676,125.665,39.118,1,336
27428,1.044,0.2,-0.164,-0.56,1.53,2.02,-76.091,129.361,39.118,1,340
27450,1.04,0.192,-0.132,0.9,0.07,2.16,-77.213,128.821,39.118,1,352
27470,1.044,0.176,-0.16,2.23,0.14,2.23,-76.693,134.351,39.118,1,360
27492,1.032,0.164,-0.172,1.04,1.25,2.23,-76.988,135.684,39.118,1,371
27512,1.036,0.16,-0.16,1.39,1.88,2.3,-77.685,135.01,39.113,1,349
27533,1.032,0.172,-0.152,0.14,1.95,2.64,-77.466,131.477,39.296,1,328
27554,1.024,0.172,-0.188,-0.42,3.34,3.9,-76.032,137.555,39.281,1,317
27575,1.02,0.2,-0.132,-4.8,2.09,7.1,-76.785,123.434,39.354,1,303
27596,1.02,0.2,-0.176,-4.45,3.69,8.42,-75.368,131.357,39.258,1,304
27617,1.028,0.2,-0.156,-4.31,2.78,8.14,-76.745,126.314,39.258,1,309
27638,1.028,0.192,-0.16,-4.87,3.41,7.23,-76.415,131.109,39.258,1,308
27659,1.028,0.18,-0.168,-6.68,5.15,6.61,-75.948,134.38,39.258,1,306
27680,1.016,0.172,-0.168,-4.73,4.87,5.84,-76.692,134.336,39.258,1,327
27701,1.028,0.18,-0.16,-3.97,4.17,6.05,-76.821,131.643,38.859,1,329
27721,1.032,0.168,-0.16,-3.62,5.22,4.52,-77.336,133.613,38.961,1,325
27743,1.036,0.172,-0.156,-4.87,5.7,4.24,-77.372,132.217,38.732,1,327
27763,1.032,0.164,-0.152,-3.13,6.4,4.24,-77.78,132.835,38.774,1,308
27785,1.024,0.172,-0.148,-1.81,6.33,4.94,-77.619,128.51,38.941,1,296
27805,1.024,0.176,-0.144,-0.35,6.54,4.52,-77.371,131.477,38.941,1,301
27827,1.024,0.168,-0.144,0.21,5.98,3.83,-77.813,130.611,38.941,1,375
27847,1.024,0.164,-0.14,-0.07,5.63,3.83,-78.114,130.496,38.941,1,283
27869,1.016,0.172,-0.14,-2.3,7.79,4.38,-77.692,129.154,38.941,1,266
27889,1.028,0.172,-0.168,-1.11,6.4,4.8,-76.842,134.336,38.667,1,321
27910,1.02,0.156,-0.144,1.88,2.99,5.91,-78.248,132.719,38.761,1,325
27931,1.02,0.176,-0.124,-6.96,3.69,4.31,-76.536,136.985,38.796,1,322
27952,1.028,0.148,-0.18,-2.85,3.55,4.31,-78.114,130.496,38.811,1,318
27973,1.032,0.16,-0.124,2.57,0.77,5.29,-78.693,125.547,38.446,1,317
27994,1.036,0.176,-0.156,-1.25,2.92,4.24,-77.216,131.562,38.446,1,324
28015,1.032,0.176,-0.124,-0.77,3.06,3.41,-78.222,125.176,38.446,1,338
28036,1.02,0.172,-0.132,0.14,1.88,3.83,-78.005,127.514,38.446,1,340
28057,1.024,0.168,-0.112,0,0.83,4.03,-78.851,123.699,38.446,1,351
28078,1.052,0.164,-0.108,-0.21,-2.23,5.29,-79.433,123.375,38.541,1,334
28098,1.056,0.18,-0.108,-4.87,-2.23,8.56,-77.182,124.765,38.567,1,325
28120,1.036,0.192,-0.156,-11.34,-0.42,11.06,-75.578,127.578,38.42,1,310
28140,0.996,0.216,-0.148,-12.45,2.71,11.06,-76.977,112.175,38.339,1,298
28162,1.024,0.188,-0.16,-13.08,5.15,4.94,-76.451,130.41,38.299,1,283
28182,1.052,0.148,-0.128,-12.45,5.22,0.28,-79.469,130.865,38.299,1,298
28204,1.044,0.116,-0.108,-13.08,4.94,0.07,-81.374,132.964,38.299,1,310
28224,1.024,0.116,-0.116,-8.83,3.34,0.9,-80.904,135.01,38.299,1,314
28246,1.028,0.128,-0.136,-6.33,5.57,2.64,-79.709,136.746,38.299,1,314
28266,1.016,0.12,-0.14,-7.37,5.43,5.01,-79.48,141.922,38.13,1,332
28288,1.02,0.108,-0.14,-2.3,1.95,5.57,-81.632,131.77,38.198,1,326
28308,1.024,0.128,-0.104,-0.49,1.74,4.03,-80.355,129.482,38.076,1,335
28329,1.036,0.164,-0.132,-4.24,3.27,5.22,-78.519,128.839,37.927,1,315
28350,1.028,0.16,-0.148,-4.31,4.73,5.29,-78.035,132.779,37.799,1,297
28370,1.012,0.172,-0.116,-6.19,2.37,3.83,-78.421,124.006,37.799,1,310
28392,1.02,0.184,-0.136,-10.92,1.74,2.02,-77.362,126.479,37.799,1,337
28412,1.056,0.188,-0.092,-10.71,0.28,2.37,-78.795,116.084,37.799,1,282
28434,1.04,0.204,-0.104,-12.8,2.5,6.05,-76.876,117.004,37.799,1,286
28454,1.02,0.2,-0.128,-15.23,3.34,7.58,-74.648,136.746,37.791,1,330
28476,1.036,0.192,-0.148,-9.04,3.69,3.06,-80.519,115.416,37.683,1,323
28496,1.036,0.088,-0.12,-11.27,3.41,-0.28,-81.832,143.757,37.627,1,325
28518,1.016,0.048,-0.092,-7.86,-1.32,0.83,-84.175,152.458,37.405,1,339
28538,1.032,0.1,-0.116,1.11,-3.69,0.77,-81.565,139.247,37.605,1,299
28560,1.024,0.116,-0.14,2.92,-2.5,-0.77,-79.938,140.366,37.605,1,317
28580,1.012,0.108,-0.12,-2.16,-0.14,1.67,-80.942,138.023,37.605,1,312
28602,1.024,0.156,-0.124,0.63,3.48,5.36,-78.605,121.544,37.605,1,303
28622,1.02,0.16,-0.128,1.18,6.89,2.64,-79.047,135.84,37.605,1,301
28643,0.976,0.104,-0.128,-5.29,4.66,-2.23,-80.415,140.917,37.605,1,316
28664,0.968,0.168,-0.136,2.92,3.06,-0.56,-77.418,129,37.586,1,303
28685,1.04,0.172,-0.112,2.23,4.73,2.71,-78.842,123.08,37.835,1,284
28706,1.032,0.108,-0.108,-2.43,5.15,0.35,-81.587,135.01,37.728,0,289
28727,0.968,0.132,-0.144,0.14,2.99,3.83,-78.597,137.5,37.755,0,290
28748,1.044,0.212,-0.056,4.8,2.43,7.58,-78.144,104.804,37.755,0,267
28769,1.092,0.144,-0.148,-1.74,5.91,2.09,-80.25,144.915,37.755,0,274
28790,1.012,0.108,-0.124,-1.39,6.54,1.11,-78.553,129.379,37.755,0,267
28811,1.04,0.204,-0.096,-0.63,5.5,5.22,-77.774,115.21,37.755,0,261
28831,1.052,0.144,-0.108,-0.7,3.83,4.59,-80.296,126.879,37.714,0,274
28853,1.016,0.136,-0.108,-1.18,4.03,3.06,-80.306,128.463,37.741,0,280
28873,1.012,0.172,-0.116,-0.42,5.57,3.97,-78.421,124.006,37.624,0,284
28895,1.036,0.152,-0.112,-0.21,6.68,3.27,-79.677,126.394,37.578,0,262
28915,1.036,0.116,-0.104,0.42,5.63,1.74,-81.809,130.611,37.857,0,255
28937,1.008,0.14,-0.1,1.04,4.17,3.62,-78.915,121.768,37.857,0,285
28957,1.02,0.188,-0.1,3.48,3.34,5.29,-79.006,117.081,37.857,0,311
28979,1.044,0.132,-0.1,3.62,4.17,2.57,-80.993,127.156,37.857,0,210
28999,1.02,0.132,-0.068,4.24,3.97,1.11,-81.723,117.264,37.857,0,289
29020,1,0.164,-0.124,6.4,3.2,3.62,-78.388,127.102,37.925,0,301
29041,1.032,0.176,-0.076,-1.39,3.83,2.71,-79.482,113.364,37.645,0,309
29062,1.04,0.128,-0.076,0.28,1.53,0.56,-81.86,120.709,37.775,0,320
29083,1.02,0.12,-0.1,3.06,-0.21,2.09,-81.251,122.48,37.76,0,319
29104,1.024,0.152,-0.072,4.17,0.56,3.27,-79.943,119.908,37.515,0,316
29125,1.052,0.176,-0.092,3.69,2.02,2.3,-80.537,114.236,37.515,0,325
29146,1.036,0.136,-0.068,3.76,1.95,-0.14,-81.656,116.574,37.515,0,328
29167,1.032,0.124,-0.072,4.94,2.02,-1.18,-82.096,120.15,37.515,0,338
29188,1.048,0.152,-0.088,5.7,1.18,0.35,-80.492,120.077,37.515,0,339
29209,1.06,0.176,-0.096,2.85,2.09,1.04,-79.296,118.619,37.515,0,340
29230,1.028,0.168,-0.132,2.57,3.97,-0.7,-78.265,128.167,37.756,0,339
29250,1.008,0.164,-0.084,-0.77,3.62,0.63,-79.666,121.616,37.994,0,337
29272,1.024,0.148,-0.12,2.78,3.41,1.95,-79.645,122.014,38.226,0,340
29292,1.044,0.168,-0.092,0.49,3.41,2.16,-79.135,122.744,38.144,0,328
29314,1.032,0.152,-0.064,1.46,3.62,1.11,-80.926,112.842,38.11,0,325
29334,1.024,0.164,-0.096,1.53,3.48,0.83,-79.493,120.352,38.11,0,322
29356,1.024,0.172,-0.096,0.63,1.88,-0.56,-79.117,119.176,38.11,0,328
29376,1.024,0.168,-0.1,0.35,2.71,0.63,-79.197,120.772,38.11,0,340
29398,1.02,0.16,-0.092,2.64,3.27,1.81,-79.749,119.908,38.117,0,361
29418,1.028,0.156,-0.092,3.69,5.77,1.6,-79.825,121.616,38.246,0,361
29440,1.016,0.148,-0.104,0.49,4.94,0.97,-80.459,122.583,38.233,0,358
29460,1.008,0.14,-0.084,0,2.99,1.88,-80.762,122.161,38.328,0,361
29480,1.036,0.164,-0.06,2.43,1.53,3.69,-80.438,110.103,38.301,0,334
29502,1.056,0.196,-0.072,2.92,4.31,3.83,-78.821,110.179,38.403,0,346
29522,1.036,0.196,-0.092,2.57,5.08,4.45,-78.201,115.153,38.403,0,394
29544,1.024,0.176,-0.088,5.15,4.66,3.34,-79.128,116.574,38.403,0,297
29564,1.02,0.172,-0.08,5.98,1.81,0.97,-79.471,114.952,38.403,0,364
29586,1.028,0.152,-0.108,10.71,-0.07,0.35,-79.976,120.539,38.403,0,371
29606,1.028,0.168,-0.044,1.32,3.41,2.5,-79.244,112.899,38.363,0,379
29628,1.032,0.168,-0.108,-0.7,2.78,3.34,-79.549,124.704,38.471,0,379
29648,1.024,0.16,-0.068,6.4,-1.74,4.24,-80.37,113.034,38.424,0,380
29670,1.028,0.18,-0.084,5.57,1.18,1.53,-79.07,115.025,38.362,0,368
29690,1.032,0.18,-0.08,3.9,4.1,0.9,-79.2,113.971,38.362,0,369
29711,1.032,0.172,-0.072,5.7,4.87,1.95,-79.764,112.723,38.362,0,373
29732,1.032,0.172,-0.088,4.87,5.84,1.74,-79.402,117.104,38.362,0,374
29753,1.028,0.176,-0.088,4.1,8,1.53,-79.402,117.104,38.362,0,365
29774,1.02,0.164,-0.088,3.9,8.42,1.53,-79.707,115.472,38.362,0,371
29795,1.024,0.168,-0.08,-0.07,8.56,2.09,-78.988,117.606,38.497,0,364
29816,1.024,0.188,-0.06,-1.95,11.2,2.16,-79.098,107.708,38.729,0,359
29837,1.024,0.176,-0.084,-0.49,10.57,1.25,-79.223,115.522,38.709,0,355
29858,1.028,0.164,-0.072,-0.21,7.1,1.32,-80.122,113.711,38.629,0,345
29879,1.04,0.168,-0.048,-1.25,5.5,1.39,-80.469,105.953,38.67,0,344
29900,1.036,0.18,-0.064,-0.97,6.54,2.37,-79.831,108.833,38.67,0,344
29921,1.04,0.18,-0.052,-0.35,6.75,2.85,-80.036,106.468,38.67,0,349
29941,1.044,0.172,-0.052,-0.49,7.03,2.99,-80.995,104.044,38.67,0,351
29963,1.028,0.156,-0.04,-2.23,6.96,3.48,-81.102,104.389,38.67,0,364
29983,1.024,0.16,-0.052,-1.18,6.75,4.24,-80.676,108.012,38.875,0,371
30005,1.016,0.16,-0.052,0.14,6.75,4.73,-80.604,108.012,38.875,0,368
30025,1.024,0.152,-0.032,1.18,6.89,4.24,-81.38,101.896,38.883,0,354
30047,1.024,0.156,-0.036,0.97,6.75,3.69,-81.12,103.002,38.896,0,349
30067,1.024,0.164,-0.052,0.49,7.23,3.41,-79.884,106.468,38.871,0,334
30089,1.028,0.176,-0.044,1.46,6.89,2.64,-80.036,104.044,38.871,0,424
30109,1.032,0.168,-0.044,2.43,5.7,1.18,-80.59,102.102,38.871,0,275
30131,1.036,0.164,-0.028,0.7,3.83,0.7,-80.883,99.696,38.871,0,306
30151,1.028,0.152,-0.076,9.04,0.35,0.49,-80.619,116.574,38.871,0,358
30172,1.04,0.184,-0.008,2.3,0.63,1.32,-79.963,92.496,38.949,0,377
30193,1.044,0.176,-0.024,-3.55,4.17,0.77,-80.35,97.772,39.04,0,373
30214,1.024,0.156,-0.052,0.21,1.88,3.27,-80.883,108.443,39.194,0,373
30235,1.02,0.168,-0.028,-0.42,-1.88,4.24,-79.677,106.121,39.075,0,367
30256,1.024,0.184,-0.064,-3.83,-0.63,3.9,-79.709,103.744,39.158,0,362
30277,1.02,0.176,-0.04,-2.78,-0.83,4.52,-80.059,100.312,39.158,0,371
30298,1.016,0.164,-0.044,-1.04,-0.35,5.5,-80.518,105.026,39.158,0,376
30318,1.02,0.168,-0.032,-0.7,-0.07,4.73,-80.488,100.792,39.158,0,367
30340,1.028,0.16,-0.036,0.97,-0.14,3.41,-80.942,102.688,39.158,0,362
30360,1.028,0.152,-0.048,0.63,-1.32,2.78,-81.192,107.533,38.916,0,348
30382,1.028,0.16,-0.04,0.07,-0.83,3.41,-80.892,104.044,38.869,0,338
30402,1.036,0.16,-0.024,1.11,0.21,2.78,-80.554,102.102,38.686,0,338
30424,1.036,0.164,-0.072,1.67,1.04,3.34,-79.922,106.468,38.891,0,333
30444,1.032,0.164,-0.016,3.2,-1.25,3.97,-81.588,97.503,38.485,0,320
30466,1.032,0.16,-0.048,3.9,-0.83,2.71,-80.812,106.707,38.485,0,318
30486,1.032,0.18,-0.044,0.56,-0.97,3.83,-79.827,103.744,38.485,0,318
30508,1.02,0.18,-0.048,0.7,-0.97,4.03,-79.656,104.939,38.485,0,323
30528,1.016,0.168,-0.06,1.32,-0.97,3.27,-80.047,109.662,38.485,0,333
30548,1.02,0.176,-0.052,-0.14,-1.32,2.85,-79.806,106.468,38.518,0,343
30570,1.016,0.172,-0.068,-0.56,-1.53,1.74,-79.852,112.044,38.819,0,356
30590,1.02,0.164,-0.068,-0.56,-2.92,0.97,-79.728,111.58,38.573,0,342
30612,1.028,0.176,-0.068,-1.95,-2.02,1.32,-79.409,106.935,38.676,0,338
30632,1.04,0.176,-0.048,-0.9,-1.95,1.32,-80.057,105.263,38.565,0,322
30654,1.04,0.168,-0.044,-0.35,-1.04,1.6,-80.526,104.684,38.565,0,424
30674,1.048,0.164,-0.04,-1.6,-0.35,1.32,-80.856,103.715,38.565,0,255
30696,1.032,0.18,-0.048,-4.59,-0.07,2.43,-79.773,104.939,38.565,0,282
30716,1.024,0.152,-0.076,3.41,-2.16,2.23,-80.583,116.574,38.565,0,342
30738,1.02,0.16,-0.028,0.21,-3.55,2.43,-80.323,105.953,38.704,0,361
30758,1.032,0.164,-0.036,-4.31,-0.63,1.88,-80.836,105.384,38.607,0,364
30780,1.024,0.156,-0.076,-0.63,-1.32,4.1,-80.619,112.314,38.667,0,363
30800,1.024,0.148,-0.064,2.85,-3.2,5.43,-81.057,113.394,38.571,0,364
30821,1.032,0.18,-0.072,0.56,-1.32,4.45,-79.367,111.81,38.758,0,361
30842,1.036,0.184,-0.068,-2.71,1.25,4.17,-79.284,110.291,38.758,0,371
30863,1.028,0.172,-0.068,-2.02,2.37,4.31,-79.807,111.58,38.758,0,386
30884,1.028,0.168,-0.076,-1.04,2.71,4.17,-79.837,114.35,38.758,0,380
30905,1.028,0.164,-0.08,0.21,3.41,3.48,-80.38,118.935,38.758,0,361
30926,1.024,0.148,-0.06,-0.49,2.64,2.85,-80.57,109.298,38.539,0,339
30947,1.012,0.156,-0.072,0.56,1.95,3.13,-80.37,114.784,38.3,0,321
30968,1.02,0.164,-0.044,3.41,0.63,2.99,-80.555,105.026,38.267,0,317
30989,1.024,0.168,-0.068,1.6,0.49,2.16,-79.969,112.044,38.423,0,316
31010,1.04,0.16,-0.056,2.16,0.35,2.43,-80.748,109.298,38.334,0,304
31031,1.044,0.156,-0.052,2.16,-1.67,3.48,-81.055,108.443,38.334,0,304
31051,1.04,0.164,-0.068,1.39,-1.81,4.87,-80.474,110.103,38.334,0,305
31073,1.04,0.172,-0.056,1.95,-2.3,3.9,-80.036,110.418,38.334,0,306
31093,1.036,0.168,-0.064,0.77,-1.32,3.9,-80.362,111.326,38.334,0,313
31115,1.028,0.164,-0.076,-0.07,-1.04,4.24,-80.033,114.872,38.334,0,316
31135,1.032,0.156,-0.08,0.7,-0.7,4.66,-80.365,117.158,38.273,0,323
31157,1.024,0.156,-0.076,1.11,-0.83,4.45,-80.388,115.983,38.416,0,316
31177,1.02,0.172,-0.084,-0.07,0.21,4.94,-79.377,116.038,38.123,0,308
31199,1.028,0.172,-0.072,-0.56,1.32,4.03,-79.725,112.723,38.028,0,289
31219,1.028,0.16,-0.084,2.85,0,1.25,-80.097,116.574,38.028,0,327
31240,1.028,0.16,-0.072,3.48,0.07,1.25,-79.981,105.263,38.028,0,384
31261,1.04,0.176,-0.056,-2.37,-0.28,2.71,-79.922,111.58,38.028,0,114
31282,1.032,0.144,-0.1,0.97,-1.67,3.13,-80.365,124.787,38.028,0,312
31303,1.02,0.156,-0.076,3.83,-4.45,2.57,-80.351,115.983,38.11,0,328
31324,1.036,0.164,-0.08,-1.32,-2.99,2.71,-80.017,116.012,37.759,0,336
31345,1.036,0.156,-0.092,-1.11,-1.11,3.06,-80.09,120.539,38.049,0,341
31366,1.028,0.152,-0.068,1.95,-3.13,4.45,-80.805,114.111,37.865,0,353
31387,1.032,0.148,-0.1,2.71,-3.48,5.91,-80.237,121.194,38.062,0,348
31408,1.044,0.156,-0.064,4.87,-4.1,5.15,-80.683,103.4,38.042,0,367
31429,1.06,0.172,-0.056,3.48,-1.46,2.02,-80.453,109.662,38.042,0,382
31450,1.056,0.16,-0.056,3.76,1.67,0.49,-80.886,109.298,38.042,0,388
31470,1.048,0.164,-0.1,2.92,3.27,0.35,-79.62,121.382,38.042,0,366
31492,1.028,0.164,-0.088,2.02,4.1,0.9,-79.744,118.226,38.056,0,352
31512,1.028,0.164,-0.088,0.97,3.76,0.7,-79.744,118.226,38.036,0,330
31534,1.028,0.16,-0.104,1.53,3.55,0.9,-79.49,123.033,38.063,0,328
31554,1.024,0.168,-0.088,1.04,3.27,2.23,-78.894,123.699,38.164,0,329
31576,1.036,0.176,-0.108,0.97,4.31,2.16,-79.522,113.364,38.036,0,319
31596,1.036,0.176,-0.072,-0.28,3.83,1.95,-79.972,118.82,38.137,0,315
31618,1.028,0.168,-0.08,0.9,3.13,1.81,-79.746,115.472,38.137,0,319
31638,1.028,0.172,-0.084,0.07,2.85,2.57,-79.458,116.038,38.137,0,319
31659,1.028,0.168,-0.096,0.42,2.16,2.16,-79.346,119.754,38.137,0,322
31680,1.02,0.168,-0.096,0.63,1.04,2.85,-79.264,119.754,38.137,0,336
31700,1.016,0.164,-0.1,1.04,0.63,2.71,-79.3,121.382,38.285,0,358
31722,1.016,0.16,-0.096,-0.35,-0.63,3.13,-79.67,119.908,38.238,0,340
31742,1.012,0.16,-0.084,-0.56,-1.04,3.48,-79.71,119.908,38.292,0,331
31764,1.02,0.164,-0.104,-0.97,-0.77,3.48,-79.155,120.772,38.238,0,320
31784,1.02,0.16,-0.108,0.63,-1.67,3.34,-79.289,124.028,38.157,0,329
31805,1.024,0.156,-0.104,2.16,-1.88,3.34,-79.63,123.699,38.157,0,495
31826,1.036,0.172,-0.072,1.32,-1.88,2.92,-79.803,112.723,38.157,0,165
31847,1.044,0.176,-0.084,-2.23,-1.95,3.06,-79.425,115.522,38.157,0,335
31868,1.028,0.14,-0.132,2.43,-2.64,2.78,-79.404,133.325,38.157,0,352
31889,1.032,0.14,-0.088,2.85,-3.2,2.99,-80.086,122.285,38.245,0,361
31910,1.036,0.152,-0.08,3.55,-3.41,0.63,-79.337,128.3,38.184,1,376
31931,1.032,0.152,-0.12,10.57,-3.06,-1.18,-80.303,115.416,38.245,1,372
31952,1.044,0.176,-0.104,9.53,-1.18,-0.9,-78.927,120.588,38.232,1,368
31973,1.044,0.176,-0.06,7.58,-0.42,0.9,-79.907,108.833,38.191,1,374
31994,1.032,0.164,-0.108,9.74,-0.9,0.77,-79.232,123.375,38.191,1,383
32015,1.028,0.168,-0.092,13.15,-3.27,0.56,-79.451,118.715,38.191,1,385
32036,1.044,0.184,-0.112,11.9,-4.87,0.7,-78.348,121.338,38.191,1,374
32057,1.04,0.184,-0.116,10.71,-5.5,1.67,-78.123,120.793,38.191,1,359
32078,1.044,0.192,-0.1,8.28,-4.8,1.81,-78.456,120.42,38.573,1,335
32099,1.036,0.176,-0.096,8.97,-6.19,0.97,-79.054,118.619,38.62,1,324
32120,1.036,0.188,-0.116,7.51,-10.85,1.95,-77.969,121.684,38.64,1,321
32141,1.036,0.196,-0.12,6.26,-13.63,4.38,-77.498,121.486,38.775,1,310
32161,1.056,0.176,-0.072,8,-11.27,2.64,-79.798,112.257,38.76,1,302
32183,1.052,0.172,-0.112,5.91,-8.28,-0.14,-78.966,123.08,38.76,1,306
32203,1.044,0.188,-0.116,3.2,-4.52,-1.18,-77.462,128.669,38.76,1,306
32225,1.028,0.176,-0.136,2.16,-3.06,0.9,-77.525,128.51,38.76,1,311
32245,1.02,0.164,-0.132,2.02,-2.92,4.52,-77.672,130.611,38.76,1,324
32267,1.02,0.168,-0.136,2.5,-2.85,5.91,-78.041,129,38.912,1,325
32287,1.02,0.18,-0.144,2.37,-1.6,4.17,-77.271,128.669,38.604,1,336
32309,1.016,0.172,-0.14,0.14,-0.14,2.92,-77.692,129.154,38.84,1,319
32329,1.024,0.172,-0.132,0,0.49,1.81,-78.051,127.514,38.751,1,304
32350,1.032,0.176,-0.136,-0.56,1.18,2.43,-77.843,127.704,38.604,1,305
32371,1.036,0.176,-0.14,-0.42,1.95,3.2,-77.462,128.669,38.604,1,373
32392,1.04,0.176,-0.14,0.97,2.71,2.78,-77.767,127.082,38.604,1,318
32413,1.036,0.184,-0.132,-2.64,3.76,2.3,-78.299,123.699,38.604,1,195
32434,1.028,0.16,-0.192,-2.64,3.48,1.39,-76.341,140.205,38.604,1,329
32454,1.012,0.156,-0.116,0.97,-1.04,3.55,-79.132,126.643,38.816,1,335
32476,1.024,0.172,-0.112,0.21,0.63,3.2,-78.672,123.08,38.78,1,338
32496,1.024,0.168,-0.184,-1.6,4.52,2.64,-76.33,137.613,38.792,1,337
32518,1.02,0.156,-0.132,6.47,1.53,2.16,-78.677,130.246,38.86,1,332
32538,1.032,0.152,-0.168,5.77,2.16,1.95,-78.035,132.779,38.901,1,328
32560,1.04,0.176,-0.136,3.27,2.23,3.55,-77.798,124.834,38.901,1,339
32580,1.04,0.188,-0.128,2.23,2.99,4.66,-77.63,125.665,38.901,1,348
32601,1.032,0.184,-0.152,1.67,3.27,4.52,-76.984,129.569,38.901,1,348
32622,1.028,0.176,-0.148,1.46,3.13,2.78,-77.397,130.07,38.901,1,344
32643,1.024,0.18,-0.14,1.6,2.78,1.81,-77.451,127.884,38.846,1,324
32664,1.028,0.176,-0.144,0,3.62,1.6,-77.532,129.299,39.005,1,314
32685,1.02,0.172,-0.132,-0.35,2.23,3.27,-78.005,127.514,38.968,1,306
32706,1.028,0.164,-0.172,0.21,3.06,2.64,-76.989,136.374,38.752,1,302
32727,1.016,0.176,-0.136,1.53,-0.35,3.06,-78.041,125.176,38.773,1,291
32747,1.02,0.164,-0.144,0.83,-1.18,1.39,-77.577,132.147,38.773,1,292
32769,1.028,0.18,-0.148,-0.9,-0.63,1.74,-77.233,129.437,38.773,1,298
32789,1.028,0.184,-0.152,-0.77,-0.28,2.64,-76.935,129.569,38.773,1,304
32811,1.024,0.184,-0.152,-0.7,0.9,2.5,-76.886,129.569,38.773,1,316
32831,1.024,0.172,-0.14,-1.6,0.07,2.3,-77.786,129.154,39.067,1,322
32852,1.032,0.168,-0.14,-0.63,-0.21,2.5,-78.041,129.815,38.888,1,324
32873,1.024,0.168,-0.148,-0.28,1.04,3.13,-77.672,131.388,39.15,1,317
32893,1.032,0.184,-0.152,-1.6,1.95,2.85,-76.87,128.965,39.04,1,315
32915,1.032,0.188,-0.14,-2.5,1.95,2.57,-77.194,130.189,38.918,1,302
32935,1.028,0.176,-0.136,-1.95,0.9,1.88,-77.797,127.704,38.918,1,392
32957,1.028,0.184,-0.14,-1.25,1.81,1.67,-77.33,127.276,38.918,1,249
32977,1.028,0.188,-0.128,-3.2,3.06,2.37,-77.53,124.258,38.918,1,284
32998,1.024,0.176,-0.192,-0.83,1.32,2.64,-75.735,137.5,38.918,1,314
33019,1.02,0.168,-0.108,1.53,0.14,1.95,-78.927,122.744,39.083,1,330
33040,1.016,0.176,-0.14,-5.63,3.34,0.7,-77.525,128.51,38.974,1,330
33061,1.016,0.168,-0.172,1.11,0.77,3.06,-78.232,131.196,38.934,1,342
33082,1.028,0.164,-0.132,5.63,-1.53,2.57,-77.559,131.477,39.008,1,334
33103,1.052,0.196,-0.136,0.07,1.25,2.23,-77.229,124.765,39.31,1,325
33124,1.036,0.184,-0.136,0.21,1.88,2.64,-77.552,126.479,39.31,1,339
33144,1.024,0.184,-0.128,-0.42,0.97,3.69,-77.659,124.834,39.31,1,345
33166,1.02,0.184,-0.14,-3.06,0.9,3.06,-77.234,127.276,39.31,1,335
33186,1.028,0.184,-0.148,-2.23,0.97,2.09,-77.069,128.821,39.31,1,324
33208,1.02,0.172,-0.148,-0.83,0.83,2.23,-77.464,130.72,39.268,1,327
33228,1.02,0.172,-0.152,-2.85,0.49,3.41,-76.593,135.01,39.184,1,322
33250,1.024,0.184,-0.136,-3.9,1.67,3.27,-78.077,123.699,39.185,1,319
33270,1.024,0.164,-0.172,-2.3,3.06,2.78,-76.939,136.374,39.158,1,320
33291,1.032,0.18,-0.116,-1.25,0.77,2.85,-78.283,122.809,39.292,1,307
33312,1.052,0.172,-0.152,-1.95,1.04,1.53,-77.697,131.477,39.306,1,304
33333,1.04,0.184,-0.14,-1.74,3.55,2.16,-77.472,127.276,39.306,1,310
33354,1.028,0.176,-0.156,3.2,5.7,1.25,-77.119,131.562,39.306,1,320
33375,1.028,0.168,-0.156,-0.63,4.66,1.11,-77.434,132.889,39.306,1,324
33396,1.016,0.156,-0.148,2.64,1.46,0.77,-78.238,130.374,39.179,1,337
33417,1.02,0.176,-0.124,3.69,1.32,2.02,-77.659,124.834,39.33,1,329
33437,1.028,0.18,-0.128,2.23,2.85,2.23,-77.88,125.426,39.392,1,327
33459,1.028,0.176,-0.132,1.95,3.69,2.16,-77.926,126.879,39.182,1,322
33479,1.036,0.18,-0.144,1.53,2.71,2.09,-77.462,128.669,39.259,1,352
33501,1.028,0.184,-0.132,2.16,1.11,2.57,-77.583,125.665,39.298,1,304
33521,1.032,0.196,-0.132,1.67,1.6,2.43,-77.109,123.968,39.298,1,256
33543,1.04,0.196,-0.14,1.81,-0.28,0.9,-76.966,125.547,39.298,1,308
33563,1.032,0.188,-0.128,2.5,-1.74,1.32,-79.444,110.704,39.298,1,320
33585,1.024,0.18,-0.156,-4.87,0.07,1.39,-76.492,134.351,39.312,1,334
33605,1.02,0.176,-0.136,-0.77,-1.6,3.41,-77.704,127.704,39.596,1,350
33626,1.032,0.172,-0.14,1.81,-2.02,2.57,-77.877,129.154,39.457,1,349
33647,1.052,0.18,-0.132,0.83,-0.9,1.95,-78.026,126.263,39.584,1,347
33668,1.092,0.176,-0.092,4.31,-0.77,0.63,-79.699,117.606,39.36,1,331
33689,1.056,0.196,-0.16,-0.07,1.95,0.83,-76.532,129.235,39.32,1,338
33710,1.024,0.2,-0.176,-0.07,0.63,1.25,-75.91,128.669,39.32,1,339
33731,1.02,0.2,-0.136,2.85,0.97,-1.32,-76.941,124.765,39.32,1,323
33752,1.028,0.196,-0.148,-2.5,5.98,-2.99,-76.247,123.953,39.32,1,314
33772,1.016,0.188,-0.164,-1.81,5.15,-0.9,-76.21,131.109,39.32,1,319
33794,1.012,0.188,-0.108,-0.35,4.8,0.63,-77.913,119.885,39.67,1,314
33814,1.008,0.184,-0.168,-2.23,5.98,0.07,-76.121,132.407,39.698,1,320
33836,1.008,0.184,-0.096,0.49,5.77,0.49,-78.372,117.561,39.858,1,317
33856,1.012,0.176,-0.164,0.56,8.7,-0.63,-76.634,132.988,39.926,1,309
33876,1.008,0.192,-0.152,-0.42,7.44,-0.28,-76.351,128.377,39.999,1,309
33898,1.028,0.188,-0.14,0.63,7.37,-2.09,-77.483,124.258,39.999,1,322
33918,1.008,0.188,-0.14,-2.16,8.63,-2.43,-77.243,127.082,39.999,1,315
33940,0.996,0.196,-0.148,-2.09,7.37,-0.07,-76.154,127.066,39.999,1,323
33960,1.012,0.208,-0.144,-0.9,4.03,0.28,-75.97,124.704,39.999,1,338
33982,0.996,0.22,-0.152,-0.7,3.69,5.15,-74.977,124.65,40.405,1,336
34002,0.992,0.2,-0.14,-2.78,5.08,7.03,-76.18,125.001,40.462,1,334
34023,1.016,0.184,-0.128,-1.25,3.48,4.59,-77.565,124.834,40.412,0,374
34044,1.036,0.204,-0.124,-1.67,2.92,4.52,-77.029,121.302,40.477,0,313
34065,1.028,0.2,-0.136,0.14,2.23,5.36,-77.014,121.808,40.28,0,295
34086,1.02,0.196,-0.108,2.85,-0.77,4.17,-76.135,133.079,40.28,0,313
34107,1.032,0.204,-0.06,0.97,-0.42,3.34,-78.363,106.397,40.28,0,324
34128,1.028,0.208,-0.132,-4.8,2.99,3.83,-76.529,122.409,40.28,0,330
34149,1.02,0.172,-0.116,0.28,1.04,5.84,-78.509,124.006,40.28,0,350
34169,1.02,0.16,-0.112,2.3,0.83,5.63,-79.166,125.001,40.205,0,358
34191,1.012,0.188,-0.12,0.49,2.71,5.91,-77.577,122.559,40.062,0,359
34211,1.02,0.208,-0.108,-0.77,3.9,7.17,-77.065,117.448,40.146,0,362
34233,1.028,0.208,-0.124,-0.42,3.55,6.82,-76.956,119.99,39.889,0,361
34253,1.044,0.208,-0.12,0.97,2.92,3.76,-77.668,119.258,40.067,0,344
34275,1.044,0.18,-0.108,2.02,1.18,1.18,-78.637,120.973,40.067,0,330
34295,1.04,0.176,-0.116,2.3,0.63,0.83,-78.548,123.398,40.067,0,327
34316,1.032,0.18,-0.144,1.95,2.92,3.41,-77.415,128.669,40.067,0,322
34337,1.02,0.192,-0.108,-0.07,3.62,4.73,-77.819,119.367,40.067,0,344
34358,1.028,0.2,-0.136,2.16,4.31,3.48,-76.766,124.225,39.807,0,344
34379,1.028,0.196,-0.108,0.14,3.83,4.45,-77.725,118.864,39.878,0,345
34400,1.028,0.184,-0.116,1.67,3.13,0.83,-78.096,119.885,39.64,0,341
34421,1.024,0.188,-0.108,0.9,4.59,0.28,-77.388,119.258,39.716,0,336
34442,1.02,0.192,-0.12,-0.42,4.52,2.92,-77.49,122.014,39.844,0,327
34462,1.028,0.192,-0.104,1.53,2.71,3.69,-78.014,118.452,39.844,0,328
34484,1.028,0.196,-0.112,0.83,3.83,1.95,-77.62,119.754,39.844,0,332
34504,1.028,0.192,-0.116,0.07,4.38,1.04,-77.696,121.148,39.844,0,339
34526,1.024,0.184,-0.108,1.18,4.17,1.46,-78.236,120.42,39.844,0,346
34546,1.028,0.188,-0.108,2.3,3.9,2.23,-78.096,119.885,39.841,0,348
34568,1.04,0.188,-0.096,2.09,4.31,1.95,-78.186,119.885,39.903,0,342
34588,1.024,0.188,-0.112,2.5,5.84,1.39,-78.53,120.027,40.133,0,401
34610,1.024,0.188,-0.104,3.41,6.4,1.25,-78.156,118.96,40.011,0,288
34630,1.02,0.196,-0.1,2.5,5.98,1.39,-77.832,117.039,39.861,0,302
34651,1.024,0.196,-0.136,6.4,2.99,1.67,-76.891,124.765,39.861,0,324
34672,1.044,0.204,-0.052,5.08,2.43,1.46,-78.605,104.308,39.861,0,332
34693,1.032,0.212,-0.104,-4.73,6.82,0.9,-77.118,116.14,39.861,0,338
34714,1.016,0.188,-0.128,3.69,2.02,3.13,-78.461,117.561,39.861,0,352
34735,1.024,0.184,-0.092,6.61,-0.21,1.81,-77.696,121.148,40.059,0,360
34756,1.044,0.2,-0.1,1.53,2.71,-1.11,-77.866,111.046,40.336,0,363
34777,1.024,0.204,-0.096,1.81,4.73,0.9,-77.589,115.21,40.302,0,365
34798,1.024,0.192,-0.104,1.88,5.5,2.37,-77.968,118.452,40.194,0,366
34819,1.02,0.196,-0.1,1.18,6.61,2.09,-77.832,117.039,40.344,0,343
34840,1.028,0.204,-0.092,0.97,6.26,2.5,-77.725,114.283,40.344,0,330
34861,1.024,0.2,-0.096,0.28,6.26,3.9,-77.782,115.65,40.344,0,319
34881,1.028,0.2,-0.096,0.63,7.3,3.06,-78.008,107.111,40.344,0,318
34903,1.028,0.208,-0.084,2.5,7.79,-1.18,-77.585,122.014,40.344,0,330
34923,1.02,0.192,-0.12,0.56,7.23,1.39,-78.48,110.179,40.31,0,340
34945,1.032,0.18,-0.084,2.57,7.03,2.64,-79.111,115.025,40.391,0,343
34965,1.036,0.204,-0.092,-0.7,8.07,2.71,-77.817,114.283,40.253,0,340
34987,1.028,0.196,-0.084,0.21,7.1,2.5,-78.287,113.207,40.393,0,335
35007,1.024,0.2,-0.092,1.46,6.26,2.23,-77.873,114.711,40.645,0,317
35028,1.032,0.208,-0.076,0,6.05,2.37,-77.895,110.08,40.645,0,316
35049,1.024,0.204,-0.084,1.18,6.05,3.13,-77.927,111.421,40.645,0,312
35069,1.02,0.208,-0.084,1.74,5.29,3.34,-78.249,110.815,40.645,0,329
35091,1.028,0.208,-0.08,0.9,4.66,3.69,-78.249,110.815,40.645,0,332
35111,1.024,0.2,-0.072,0.9,4.24,3.76,-78.279,109.807,40.572,0,338
35133,1.024,0.2,-0.088,1.95,3.83,3.69,-77.96,113.758,40.577,0,343
35153,1.024,0.196,-0.084,3.97,0.21,0.56,-78.242,113.207,40.498,0,374
35175,1.024,0.184,-0.084,5.29,0.42,-1.25,-78.832,114.546,40.639,0,342
35195,1.028,0.204,-0.076,1.53,2.71,1.67,-78.049,110.441,40.5,0,232
35217,1.024,0.196,-0.08,6.12,0.83,3.13,-78.236,120.42,40.5,0,327
35237,1.02,0.196,-0.076,7.93,-0.63,3.97,-78.303,95.396,40.5,0,331
35258,1.028,0.228,-0.064,0.9,2.78,-1.11,-77.238,102.855,40.5,0,335
35279,1.02,0.2,-0.108,2.5,4.17,-0.35,-77.443,118.378,40.5,0,347
35300,1.02,0.196,-0.052,6.26,0.07,3.34,-78.762,104.866,40.567,0,366
35321,1.028,0.2,-0.072,4.94,1.32,1.04,-78.323,109.807,40.651,0,370
35342,1.028,0.22,-0.06,2.09,3.13,0.49,-77.499,105.263,40.685,0,373
35363,1.024,0.208,-0.08,2.5,4.52,1.6,-77.728,111.046,40.889,0,371
35384,1.028,0.212,-0.072,1.6,4.87,2.23,-78.098,107.111,40.923,0,350
35404,1.032,0.208,-0.06,1.32,4.59,1.74,-78.159,106.099,40.923,0,334
35426,1.024,0.208,-0.064,1.11,4.24,0.83,-78.114,106.099,40.923,0,320
35446,1.024,0.216,-0.084,0.07,5.77,2.43,-77.253,111.259,40.923,0,316
35468,1.024,0.216,-0.052,-0.49,6.82,3.69,-77.764,103.543,40.923,0,318
35488,1.008,0.2,-0.092,1.95,6.4,3.55,-77.686,114.711,40.914,0,338
35510,1.02,0.188,-0.06,4.1,6.26,4.03,-79.056,107.708,41.02,0,337
35530,1.02,0.204,-0.076,3.62,4.59,1.04,-77.958,110.441,40.918,0,337
35552,1.02,0.212,-0.056,2.99,3.34,-0.63,-77.458,104.289,41.05,0,336
35572,1.02,0.224,-0.056,0.21,4.45,2.23,-76.835,104.508,41.06,0,324
35593,1.028,0.22,-0.06,0.49,4.8,3.83,-77.394,106.228,41.079,0,322
35614,1.028,0.212,-0.056,1.6,2.99,2.92,-77.965,104.804,41.079,0,319
35635,1.024,0.208,-0.056,3.48,2.43,0.77,-78.126,105.076,41.079,0,334
35656,1.028,0.212,-0.056,2.92,2.85,1.04,-77.965,104.804,41.079,0,336
35677,1.024,0.204,-0.064,3.2,2.99,2.16,-78.212,107.426,41.099,0,349
35698,1.024,0.204,-0.068,5.01,3.2,1.81,-78.146,108.443,41.094,0,349
35719,1.02,0.212,-0.076,3.06,3.83,1.88,-77.422,108.443,41.259,0,356
35740,1.016,0.22,-0.076,2.43,3.48,1.46,-77.393,107.483,41.118,0,427
35761,1.012,0.212,-0.064,3.06,2.02,-0.63,-77.347,102.102,41.337,0,204
35781,1.028,0.22,-0.06,2.02,0.7,1.67,-77.499,105.263,41.313,0,352
35803,1.02,0.224,-0.056,3.69,-0.42,2.64,-77.251,104.044,41.313,0,335
35823,1.028,0.22,-0.068,0.63,1.18,2.3,-77.38,107.184,41.313,0,341
35845,1.024,0.228,-0.056,-2.78,1.88,2.57,-77.092,103.807,41.313,0,346
35865,1.024,0.204,-0.068,1.95,0.35,3.48,-78.146,108.443,41.313,0,365
35887,1.028,0.208,-0.068,4.45,1.04,2.57,-78.049,110.441,41.289,0,370
35907,1.028,0.208,-0.052,4.1,1.32,1.46,-77.904,102.536,41.323,0,379
35929,1.032,0.216,-0.052,3.2,2.57,1.46,-77.764,103.543,41.342,0,382
35949,1.016,0.22,-0.056,2.43,0.97,2.02,-77.41,104.289,41.255,0,366
35970,1.028,0.22,-0.068,2.09,2.16,1.46,-77.38,107.184,41.357,0,348
35991,1.024,0.22,-0.056,1.95,2.71,1.74,-77.506,104.289,41.357,0,330
36012,1.032,0.212,-0.06,0.7,3.69,1.6,-77.954,105.81,41.357,0,318
36033,1.024,0.216,-0.064,1.6,4.03,2.43,-77.598,106.512,41.357,0,322
36054,1.012,0.216,-0.06,2.02,2.92,2.09,-77.232,110.331,41.357,0,338
36075,1.02,0.216,-0.056,1.39,1.6,2.92,-78.135,98.591,41.366,0,339
36096,1.024,0.208,-0.068,0.49,2.64,2.16,-77.943,108.112,41.415,0,338
36117,1.024,0.22,-0.056,-0.9,2.43,2.23,-77.506,104.289,41.342,0,336
36137,1.024,0.228,-0.044,-1.6,2.23,2.37,-77.229,100.93,41.313,0,322
36158,1.036,0.216,-0.056,-2.37,2.5,1.88,-77.851,104.542,41.372,0,313
36179,1.02,0.224,-0.052,-1.46,1.67,2.43,-77.301,103.077,41.372,0,316
36200,1.024,0.216,-0.052,-1.81,1.18,2.57,-77.666,104.542,41.372,0,313
36221,1.02,0.224,-0.052,-0.42,0.07,2.5,-77.099,105.003,41.372,0,328
36242,0.996,0.224,-0.052,2.37,-1.11,2.85,-77.604,103.306,41.372,0,331
36263,1.024,0.22,-0.052,0,-0.97,0.9,-77.557,103.306,41.337,0,326
36284,1.02,0.22,-0.06,-1.81,0.7,2.99,-77.404,105.263,41.303,0,324
36305,1.016,0.216,-0.06,-3.76,0.35,4.31,-77.563,105.532,41.43,0,414
36326,0.988,0.224,-0.052,-2.09,-2.85,3.97,-76.903,103.077,41.688,0,291
36346,1.04,0.224,-0.036,-3.62,-2.02,3.62,-77.7,99.137,41.508,0,227
36368,1.032,0.224,-0.072,-5.91,1.11,4.1,-76.69,117.416,41.508,0,306
36388,1.008,0.22,-0.092,-3.55,-0.9,4.45,-77.78,104.804,41.508,0,320
36410,1.016,0.216,-0.048,-5.15,-1.74,2.71,-77.303,100.312,41.508,0,328
36430,1.024,0.204,-0.092,-1.18,-1.67,1.11,-77.678,114.283,41.508,0,350
36452,1.024,0.204,-0.064,1.25,0.28,2.71,-78.212,107.426,41.362,0,358
36472,1,0.212,-0.068,1.25,-0.35,1.81,-77.454,107.792,41.269,0,368
36494,1.004,0.224,-0.048,0.42,-1.25,0.77,-77.152,102.102,41.191,0,375
36514,1.028,0.236,-0.064,-2.23,0.56,1.88,-76.626,105.181,41.181,0,375
36536,1.04,0.236,-0.056,-2.43,0,2.71,-77.028,101.697,41.171,0,360
36556,1.024,0.224,-0.052,1.81,-3.69,2.71,-77.251,104.044,41.171,0,340
36577,1.02,0.216,-0.06,1.46,-4.24,2.64,-77.294,105.003,41.171,0,315
36598,1.052,0.216,-0.088,1.81,-0.9,2.57,-77.505,112.175,41.171,0,308
36619,1.04,0.208,-0.052,2.23,-0.42,2.3,-78.357,104.044,41.171,0,317
36640,1.032,0.208,-0.092,4.17,0,2.09,-77.577,113.869,41.216,0,319
36661,1.028,0.216,-0.064,2.92,0.28,2.09,-77.645,106.512,41.332,0,322
36682,1.028,0.22,-0.08,1.67,0.14,2.02,-77.177,109.991,41.206,0,316
36703,1.02,0.224,-0.064,1.04,0.28,2.09,-76.797,108.443,41.123,0,312
36723,1.02,0.228,-0.076,0.07,0.28,2.57,-76.879,109.662,41.454,0,298
36745,1.008,0.22,-0.076,0.49,-0.35,2.57,-77.042,105.953,41.454,0,297
36765,1.02,0.232,-0.076,-0.28,-0.7,1.95,-76.545,108.146,41.454,0,300
36787,1.02,0.232,-0.08,0.07,-0.56,2.5,-76.478,109.034,41.454,0,308
36807,1.024,0.22,-0.084,0.83,-0.77,2.85,-77.054,110.906,41.454,0,328
36829,1.024,0.208,-0.088,1.11,-1.04,2.71,-77.568,112.94,41.405,0,320
36849,1.024,0.208,-0.088,0.77,-0.77,2.78,-77.568,112.94,41.318,0,317
36871,1.02,0.204,-0.088,0.9,-0.77,2.57,-77.044,113.079,41.201,0,323
36891,1.016,0.22,-0.088,-0.28,-0.83,2.99,-77.151,109.066,41.128,0,451
36912,1.016,0.224,-0.076,-0.7,-1.95,3.27,-76.671,106.344,41.206,0,158
36933,1.028,0.232,-0.06,-2.43,-2.37,3.62,-76.884,104.508,41.206,0,313
