Time,ax,ay,az,gx,gy ,gz ,r ,p,y,manual,heart
77,1.036,-0.104,-0.116,-1.39,4.52,3.69,-81.454,-138.132,0,0,376
98,1.028,-0.116,-0.132,1.74,4.66,2.85,-80.305,-138.702,27.239,0,348
118,1.024,-0.108,-0.108,1.18,3.41,2.92,-81.523,-135.01,27.178,0,329
140,1.032,-0.096,-0.128,-0.49,4.59,3.2,-81.193,-143.141,27.216,0,304
160,1.028,-0.096,-0.112,0.49,3.41,3.2,-81.84,-139.409,27.216,0,300
181,1.028,-0.1,-0.096,-0.35,2.99,3.2,-82.326,-133.841,27.216,0,301
202,1.028,-0.104,-0.104,0.07,2.57,2.92,-81.4,-136.052,27.216,0,303
223,1.032,-0.104,-0.108,0.35,1.88,2.64,-81.241,-132.964,27.216,0,320
244,1.028,-0.108,-0.112,-2.71,2.23,3.27,-81.864,-135.01,27.157,0,337
265,1.028,-0.108,-0.104,-1.11,2.23,3.2,-81.708,-133.929,27.298,0,327
285,1.024,-0.096,-0.108,-0.9,1.6,3.48,-81.974,-138.377,27.288,0,326
307,1.028,-0.1,-0.116,-1.67,1.88,3.62,-81.532,-139.247,27.458,0,384
327,1.028,-0.088,-0.108,-1.46,1.88,3.69,-82.288,-140.837,27.095,0,240
348,1.032,-0.092,-0.112,-2.43,1.6,3.9,-82.011,-140.61,27.109,0,207
369,1.032,-0.096,-0.096,-3.41,0.35,3.55,-82.035,-138.377,27.109,0,313
390,1.032,-0.096,-0.124,-4.17,1.74,3.69,-81.231,-141.126,27.109,0,334
411,1.032,-0.108,-0.136,-2.3,1.81,2.71,-81.986,-136.133,27.109,0,341
432,1.032,-0.104,-0.116,-6.61,1.67,3.2,-81.421,-138.132,27.086,0,369
452,1.02,-0.108,-0.112,-1.32,0.77,4.38,-81.333,-136.052,27.017,0,377
474,1.028,-0.116,-0.116,0.21,0.83,4.1,-80.939,-135.01,27.201,0,382
494,1.024,-0.108,-0.108,-1.88,1.88,4.66,-81.523,-135.01,26.975,0,387
516,1.032,-0.096,-0.108,-3.41,2.37,5.08,-82.035,-138.377,27.105,0,370
536,1.028,-0.092,-0.112,-2.57,2.37,5.22,-81.981,-140.61,27.099,0,362
557,1.024,-0.092,-0.112,-1.81,2.23,3.62,-81.5,-139.247,27.099,0,345
578,1.028,-0.108,-0.112,0.28,2.37,1.39,-80.627,-136.919,27.099,0,319
599,1.032,-0.112,-0.112,1.32,1.32,1.46,-82.347,-129.183,27.099,0,307
619,1.024,-0.112,-0.124,0.28,2.5,2.02,-80.738,-137.921,27.109,0,325
641,1.032,-0.108,-0.096,-0.21,1.46,3.2,-82.035,-131.643,27.115,0,328
661,1.028,-0.116,-0.108,0.28,1.25,2.78,-81.241,-132.964,26.906,0,324
683,1.024,-0.112,-0.12,0.7,1.11,2.16,-80.899,-136.985,26.941,0,329
703,1.028,-0.108,-0.108,1.04,0.56,2.57,-81.555,-135.01,27.084,0,318
723,1.028,-0.104,-0.108,0.9,0.21,3.2,-81.708,-136.091,27.107,0,298
745,1.028,-0.1,-0.108,0.7,-0.42,3.41,-81.549,-137.131,27.107,0,289
765,1.028,-0.108,-0.112,1.95,-0.42,2.85,-81.432,-136.052,27.107,0,292
786,1.032,-0.104,-0.116,2.02,-0.42,3.41,-81.421,-138.132,27.107,0,393
807,1.028,-0.112,-0.12,0.42,0.07,4.45,-80.934,-136.985,27.107,0,116
828,1.028,-0.116,-0.108,0.42,-1.18,3.83,-81.241,-132.964,26.952,0,326
849,1.028,-0.112,-0.12,1.39,-1.04,2.37,-80.934,-136.985,26.788,0,340
870,1.024,-0.112,-0.148,2.71,-0.35,2.57,-79.732,-142.894,26.915,0,352
890,1.028,-0.116,-0.124,0.49,-0.49,1.95,-81.555,-135.01,26.93,0,343
912,1.028,-0.112,-0.112,-0.49,-0.07,1.74,-80.15,-141.351,26.9,0,340
932,1.032,-0.116,-0.136,6.05,-1.74,2.5,-80.774,-132.099,26.9,0,343
953,1.032,-0.128,-0.124,4.94,-1.32,1.53,-80.208,-134.101,26.9,0,348
974,1.032,-0.112,-0.108,4.31,-2.3,0.49,-81.432,-133.968,26.9,0,353
995,1.032,-0.12,-0.132,4.38,-2.23,0.28,-80.199,-137.736,26.9,0,380
1016,1.024,-0.116,-0.14,3.13,-1.46,0.9,-79.938,-140.366,26.918,0,380
1037,1.02,-0.116,-0.132,3.48,-1.04,-0.49,-80.231,-138.702,27.185,0,368
1057,1.024,-0.128,-0.144,6.96,-1.04,-1.81,-79.452,-139.278,27.044,0,337
1079,1.024,-0.12,-0.128,5.43,-1.74,-1.95,-80.305,-138.702,27.095,0,312
1099,1.024,-0.116,-0.144,2.78,-1.6,-3.55,-80.113,-141.351,27.25,0,283
1121,1.028,-0.104,-0.132,3.41,-3.41,-5.29,-80.722,-141.777,27.25,0,279
1141,1.044,-0.092,-0.136,-3.27,-2.23,-5.08,-81.068,-145.934,27.25,0,273
1163,1.024,-0.088,-0.132,-5.5,-2.23,-6.61,-81.199,-146.321,27.25,0,283
1183,1.024,-0.096,-0.116,-3.48,-4.1,-9.32,-81.641,-140.4,27.25,0,304
1205,1.032,-0.088,-0.104,0.21,-5.15,-12.31,-82.486,-139.774,27.55,0,305
1225,1.048,-0.084,-0.104,-0.28,-4.1,-11.83,-82.735,-138.662,28,0,309
1246,1.036,-0.088,-0.092,4.45,-4.52,-10.99,-82.72,-133.791,28.118,0,317
1267,1.048,-0.092,-0.096,9.88,-4.87,-10.64,-83.583,-140.451,28.469,0,387
1288,1.056,-0.06,-0.1,8.42,-3.41,-11.27,-83.704,-149.047,28.484,0,64
1309,1.048,-0.076,-0.068,7.17,-3.76,-12.31,-84.448,-131.83,28.484,0,319
1330,1.052,-0.088,-0.136,11.34,-1.04,-13.36,-81.252,-147.106,28.484,0,314
1351,1.048,-0.068,-0.12,15.17,1.04,-13.63,-82.508,-150.472,28.484,0,318
1372,1.044,-0.024,-0.104,8.9,2.57,-13.5,-84.169,-167.018,28.484,0,344
1393,1.044,-0.024,-0.164,7.72,6.12,-14.96,-80.625,-167.918,29.689,0,368
1414,1.036,-0.052,-0.16,13.57,4.31,-16.21,-81.355,-163.868,30.133,0,383
1435,1.044,-0.028,-0.156,9.95,5.43,-18.16,-81.911,-175.377,30.388,0,397
1456,1.044,0.004,-0.148,4.66,6.82,-18.78,-81.935,178.465,30.755,0,403
1477,1.044,0.028,-0.156,3.13,8.7,-17.18,-81.374,169.837,30.921,0,387
1498,1.04,0.032,-0.152,-1.67,10.3,-17.11,-81.511,168.124,30.921,0,382
1519,1.032,0.04,-0.14,-4.66,10.5,-18.5,-81.975,164.067,30.921,0,368
1540,1.036,0.04,-0.164,-5.7,11.13,-19.48,-80.751,166.305,30.921,0,356
1561,1.04,0.048,-0.156,-11.41,12.24,-20.94,-80.102,161.978,30.921,0,365
1582,1.028,0.06,-0.152,-16.83,11.83,-21.43,-82.178,158.51,32.494,1,385
1603,1.036,0.044,-0.16,-19.34,12.03,-21.29,-80.906,164.636,33.105,1,407
1624,1.036,0.06,-0.164,-25.32,12.1,-22.26,-80.438,159.917,33.358,1,425
1645,1.044,0.068,-0.148,-30.05,13.01,-23.44,-81.139,155.335,33.948,1,443
1667,1.04,0.056,-0.128,-30.26,11.97,-25.53,-82.355,156.382,33.961,1,434
1687,1.044,0.056,-0.12,-30.05,11.48,-26.5,-82.777,154.995,33.961,1,426
1709,1.04,0.052,-0.104,-27.55,11.62,-24.21,-83.231,150.957,33.961,1,430
1729,1.044,0.072,-0.112,-27.97,12.1,-22.68,-83.367,141.643,33.961,1,503
1751,1.036,0.088,-0.112,-27.76,11.41,-22.05,-82.178,141.853,33.961,1,317
1771,1.044,0.104,-0.076,-24.97,8.9,-21.63,-82.972,126.167,35.704,1,334
1793,1.04,0.112,-0.104,-23.44,9.46,-22.33,-81.646,132.889,36.534,1,398
1813,1.032,0.104,-0.088,-21.63,9.18,-23.17,-82.486,130.246,36.952,1,402
1835,1.024,0.104,-0.06,-22.19,7.93,-22.54,-83.319,119.99,37.348,1,407
1856,1.028,0.128,-0.036,-26.85,8.9,-21.43,-81.703,120.709,37.578,1,390
1876,1.024,0.12,-0.06,-20.73,8.9,-19.34,-82.574,107.362,37.578,1,416
1898,1.028,0.12,-0.048,-21.5,12.87,-15.86,-82.226,109.991,37.578,1,435
1918,1.028,0.112,-0.032,-19.62,14.05,-10.23,-83.542,105.953,37.578,1,441
1940,1.016,0.116,-0.044,-17.81,12.59,-9.39,-83.044,110.78,37.578,1,450
1960,1.016,0.156,-0.024,-13.43,11.27,-8.42,-81.176,98.753,38.709,1,447
1982,1.024,0.172,0.004,-5.5,9.25,-8.49,-80.469,88.674,39.464,1,447
2002,1.032,0.196,0.008,-4.1,10.5,-5.15,-79.243,87.669,39.489,1,423
2023,1.036,0.216,0.032,-4.38,12.73,-4.45,-77.475,89.019,39.67,1,414
2044,1.028,0.248,-0.004,-5.84,11.9,-7.17,-76.325,87.236,39.773,1,390
2065,1.004,0.264,0,-5.63,11.62,-11.27,-75.273,90.007,39.773,1,366
2086,1.016,0.264,-0.008,-5.91,11.06,-11.62,-75.433,91.742,39.773,1,384
2107,1.008,0.252,0.004,-8,10.3,-10.23,-75.968,89.097,39.773,1,378
2127,1.008,0.236,-0.012,-11.76,9.6,-5.98,-76.812,92.918,39.773,1,392
2149,1,0.236,-0.016,-13.5,8.07,-5.5,-76.697,93.885,40.044,1,398
2169,0.988,0.244,-0.016,-14.26,4.94,-9.04,-76.105,93.759,40.956,1,400
2191,0.996,0.236,0,-13.77,2.99,-10.16,-76.344,90.946,41.237,1,415
2211,1.008,0.228,-0.008,-16.07,2.85,-9.46,-77.846,93.187,41.027,1,525
2232,1.012,0.212,-0.008,-17.04,1.74,-7.51,-77.99,90.007,41.172,1,250
2253,0.98,0.2,-0.02,-17.74,-4.31,-7.44,-78.415,95.718,41.172,1,448
2274,0.984,0.216,0.008,-19.41,-6.33,-7.17,-77.617,87.885,41.172,1,436
2295,0.988,0.232,-0.056,-20.45,-8.14,-5.43,-76.425,103.578,41.172,1,441
2316,1.012,0.292,0.02,-29.5,-8.77,-4.94,-73.875,86.088,41.172,1,442
2337,1.016,0.26,-0.024,-17.6,-12.73,-6.89,-75.593,95.281,41.258,1,454
2358,1.032,0.252,0.008,-18.99,-10.64,-7.65,-76.334,90.007,41.852,1,438
2378,1.032,0.244,0.004,-21.29,-9.53,-7.37,-76.101,86.373,41.993,1,442
2400,1.012,0.256,0.004,-23.58,-11.2,-6.89,-75.542,90.007,41.871,1,431
2420,1.012,0.268,0.004,-24.63,-12.52,-4.8,-75.171,89.151,41.892,1,411
2442,1.008,0.256,0.004,-22.68,-14.05,-1.32,-75.754,89.111,41.892,1,398
2462,0.992,0.244,0,-23.17,-16.28,-3.9,-76.187,90.007,41.892,1,360
2483,0.988,0.26,0.004,-21.22,-19.55,-4.17,-75.26,89.125,41.892,1,336
2504,1.004,0.26,-0.032,-22.33,-19.97,-2.5,-75.382,97.024,41.892,1,320
2525,0.996,0.26,-0.028,-22.05,-23.1,-3.48,-74.988,92.571,41.963,1,340
2546,1.004,0.268,-0.012,-24.07,-24.49,-2.57,-74.808,94.212,41.727,1,335
2567,0.992,0.272,-0.04,-23.72,-26.99,-2.37,-74.515,98.373,41.982,1,309
2588,1,0.284,-0.044,-23.58,-28.87,-1.04,-73.971,98.814,41.708,1,265
2609,0.984,0.312,-0.052,-27.48,-29.98,-1.25,-72.185,99.47,41.784,1,263
2630,0.98,0.32,-0.068,-28.94,-31.17,-1.74,-71.545,102.004,41.718,1,276
2651,0.972,0.336,-0.068,-29.77,-33.04,-2.71,-70.578,101.449,41.718,1,274
2672,0.992,0.34,-0.084,-32.77,-32.56,-1.67,-70.636,105.496,41.718,1,352
2693,0.984,0.34,-0.088,-27.97,-32.28,-6.26,-70.335,103.099,41.718,1,143
2714,1,0.348,-0.088,-28.8,-31.51,-2.99,-69.094,109.581,41.687,1,299
2735,1,0.352,-0.088,-24,-31.44,-3.2,-70.063,104.044,40.875,1,307
2756,0.996,0.388,-0.144,-32,-26.02,-3.34,-67.441,110.37,40.915,1,318
2777,0.972,0.364,-0.132,-31.65,-23.17,0.63,-68.285,109.941,40.672,1,327
2798,0.98,0.36,-0.128,-19.2,-25.74,1.53,-68.705,109.581,40.535,1,313
2819,1.028,0.392,-0.132,-20.38,-17.18,1.32,-68.087,108.618,40.546,1,299
2840,1.008,0.388,-0.144,-19.9,-13.98,3.41,-67.352,110.692,40.546,1,288
2862,1.004,0.384,-0.152,-18.71,-9.67,5.08,-68.023,110.564,40.546,1,316
2882,1.02,0.36,-0.132,-17.32,-5.63,6.33,-69.403,110.144,40.546,1,314
2903,1.008,0.344,-0.132,-12.38,-1.6,7.79,-69.926,111.001,40.531,1,321
2924,1.028,0.344,-0.108,-7.86,4.31,7.93,-70.678,107.438,39.792,1,308
2945,1.016,0.332,-0.092,-6.68,10.99,10.43,-71.274,105.496,39.617,1,295
2966,1.016,0.312,-0.104,-0.9,15.44,11.13,-72.069,108.443,39.543,1,290
2987,1.02,0.332,-0.124,0.42,16.49,12.94,-71.094,105.953,39.593,1,280
3008,1.024,0.336,-0.076,4.45,20.94,13.15,-71.413,106.322,39.551,1,283
3028,1.008,0.344,-0.1,4.24,20.8,14.4,-70.368,106.217,39.551,1,272
3050,1.012,0.356,-0.112,5.77,20.17,17.04,-69.762,107.472,39.551,1,273
3070,1,0.348,-0.116,4.17,19.34,15.79,-69.861,108.443,39.551,1,273
3092,0.972,0.328,-0.136,2.99,19.2,15.3,-69.938,112.529,39.551,1,290
3112,1.008,0.328,-0.1,2.57,18.85,13.57,-71.218,106.963,38.761,1,302
3134,1.008,0.312,-0.108,1.39,21.43,13.98,-71.869,109.102,38.439,1,353
3154,1,0.28,-0.108,3.48,20.17,15.03,-73.828,111.957,38.525,1,198
3176,0.996,0.256,-0.096,1.04,17.18,15.86,-74.964,106.302,38.363,1,319
3196,1.02,0.24,-0.056,7.51,15.58,16.83,-76.424,112.842,38.321,1,282
3218,1.04,0.272,-0.02,-2.16,20.03,21.84,-75.311,94.212,38.321,1,303
3238,1.008,0.212,-0.068,2.57,20.38,23.44,-77.551,107.792,38.321,1,311
3260,1,0.2,-0.072,8.97,17.32,22.82,-78.005,109.807,38.321,1,346
3280,1.012,0.188,-0.032,8.49,18.02,18.37,-79.334,99.667,38.321,1,388
3302,0.988,0.184,-0.092,7.1,19.27,21.84,-78.548,112.899,37.056,1,396
3322,0.956,0.184,-0.06,8.7,15.44,22.82,-78.584,106.935,36.962,1,399
3344,0.956,0.18,-0.06,3.55,16.83,21.29,-78.759,107.289,36.553,1,399
3364,0.948,0.172,-0.048,4.45,12.38,22.19,-79.338,105.601,36.55,1,370
3386,0.992,0.164,-0.06,3.55,9.81,20.73,-80.022,110.103,36.276,1,326
3406,0.992,0.168,-0.004,-1.81,8.42,19.62,-80.391,91.371,36.276,1,295
3428,1.004,0.136,-0.048,2.5,4.45,19.41,-81.832,109.448,36.276,1,282
3448,1.028,0.136,0,0.07,3.69,18.02,-82.47,90.007,36.276,0,280
3469,1.008,0.124,-0.06,0.9,4.59,18.71,-82.42,109.545,36.276,0,299
3490,0.996,0.14,-0.056,0.35,2.57,19.76,-82.808,110.144,35.105,0,299
3511,1.02,0.112,-0.028,3.2,0.21,14.75,-83.483,101.697,34.833,0,294
3532,1.036,0.1,-0.04,1.67,-1.74,14.05,-84.071,111.81,34.528,0,297
3553,1.028,0.096,-0.032,1.11,-1.81,13.7,-84.384,108.443,34.271,0,289
3574,0.988,0.108,-0.068,-0.77,0.14,12.24,-82.646,122.205,34.057,0,307
3595,0.964,0.108,-0.092,-1.04,0.14,8.97,-81.634,130.436,34.057,0,327
3615,0.964,0.084,-0.064,3.34,1.95,4.03,-83.755,127.313,34.057,0,179
3637,0.948,0.068,-0.088,5.5,2.5,2.16,-85.137,130.924,34.057,0,298
3657,0.928,0.044,-0.056,8.07,-7.37,2.23,-82.176,151.833,34.057,0,303
3679,1.016,0.096,-0.044,-17.53,13.43,-1.18,-83.442,82.411,33.594,0,306
3699,1.084,0.12,-0.004,-3.69,7.72,2.92,-83.686,91.916,33.61,0,326
3720,1.104,0.088,-0.008,10.71,9.53,-1.53,-85.43,95.201,33.742,0,334
3741,1.14,0.1,0.008,-5.22,15.58,-4.31,-84.977,85.432,33.729,0,339
3762,1.148,0.092,-0.016,-3.34,18.37,-0.21,-85.356,99.873,33.88,0,342
3783,1.128,0.136,0.016,0.49,21.22,3.34,-83.084,83.296,33.88,0,324
3804,1.12,0.14,0.028,-3.41,24.14,2.43,-83.035,84.812,33.88,0,324
3824,1.064,0.12,0.02,-2.02,19.9,4.94,-84.197,83.666,33.88,0,324
3846,1.048,0.096,0.016,4.8,16.77,7.51,-84.184,81.26,33.88,0,314
3866,1.02,0.108,0.008,7.17,14.82,8.07,-83.946,85.77,34.198,0,307
3888,1.016,0.12,0.008,8.63,15.65,5.57,-83.255,86.192,34.256,0,304
3908,1.016,0.116,0.004,6.05,16.63,6.19,-83.489,88.032,34.049,0,313
3929,1.012,0.104,0.004,4.1,17.39,6.12,-84.134,87.804,34.104,0,316
3950,1.02,0.108,0.008,6.26,15.51,5.57,-83.946,85.77,34.302,0,306
3971,1.02,0.124,0.028,5.91,12.94,5.22,-82.392,76.379,34.302,0,307
3992,1.024,0.128,0.036,5.77,12.1,5.01,-82.574,72.651,34.302,0,305
4013,1.024,0.132,0.04,3.76,12.1,6.05,-82.373,69.449,34.302,0,308
4033,1.016,0.12,0.04,2.3,11.62,6.47,-82.909,71.57,34.302,0,335
4055,1.012,0.116,0.052,3.97,9.25,6.89,-82.846,65.859,34.425,0,415
4075,1.02,0.124,0.056,2.99,8.42,5.22,-82.408,65.7,34.488,0,181
4097,1.024,0.136,0.064,0.83,5.98,5.91,-81.656,64.804,34.427,0,383
4117,1.024,0.128,0.068,3.76,5.57,6.05,-81.95,62.025,34.492,0,368
4137,1.028,0.132,0.032,-2.02,5.84,4.59,-82.48,76.379,34.185,0,357
4159,1.024,0.124,0.072,-5.36,5.43,4.38,-82.606,61.118,34.185,0,360
4179,1.02,0.12,0.06,0.77,1.04,4.66,-81.809,49.402,34.185,0,361
4200,1.024,0.116,0.084,2.02,2.23,3.13,-82.71,62.655,34.185,0,363
4221,1.016,0.116,0.068,2.09,1.39,2.23,-82.467,59.625,34.185,0,369
4242,1.012,0.116,0.064,-0.28,0.9,2.09,-82.548,61.118,34.076,0,388
4262,1,0.1,0.052,2.5,-0.83,2.23,-83.575,62.53,34.398,0,384
4284,1,0.112,0.048,0.42,-1.67,2.16,-83.059,66.806,34.329,0,383
4304,1.012,0.112,0.048,0.35,-1.67,1.04,-83.14,66.806,34.175,0,373
4325,1.02,0.124,0.056,2.92,-0.83,-0.42,-82.166,70.022,34.25,0,339
4346,1.02,0.144,0.02,-1.6,0.07,-0.49,-80.999,75.624,34.25,0,331
4367,1.02,0.156,0.06,-0.49,0.56,-2.02,-81.913,72.558,34.25,0,325
4387,1.016,0.136,0.044,0.42,0,-3.62,-81.998,72.077,34.25,0,336
4409,1.024,0.116,0.056,-0.42,-0.28,-5.5,-82.836,64.235,34.25,0,330
4429,1.016,0.096,0.064,1.25,-0.83,-7.51,-83.527,56.314,34.335,0,341
4451,1.02,0.092,0.068,2.64,-2.09,-6.68,-83.607,53.535,34.76,0,341
4471,1.028,0.096,0.064,2.23,-1.81,-6.47,-83.602,56.314,34.787,0,333
4492,1.024,0.112,0.06,5.7,-2.64,-5.57,-82.933,61.826,34.95,0,338
4513,1.032,0.128,0.06,6.26,-2.57,-5.15,-82.039,65.561,35.095,0,345
4534,1.032,0.132,0.052,8,-2.71,-6.47,-81.978,65.561,35.122,0,377
4554,1.028,0.14,0.06,6.54,-2.57,-6.96,-80.712,61.612,35.122,0,171
4576,1.032,0.148,0.056,7.44,-3.41,-7.79,-81.289,69.28,35.122,0,351
4596,1.008,0.176,0.056,10.02,-3.9,-7.3,-79.623,72.355,35.122,0,343
4617,1.008,0.18,0.024,2.64,-2.02,-5.77,-79.793,82.411,35.221,0,358
4638,1.024,0.164,0.04,7.51,-3.2,-6.05,-80.645,76.299,36.019,0,366
4659,1.016,0.172,0.052,12.1,-4.66,-5.01,-79.976,73.184,36.286,0,371
4680,1.02,0.176,0.032,11.83,-3.76,-4.52,-79.416,80.346,36.447,0,374
4701,1.028,0.196,0.04,5.57,-3.27,-4.59,-78.952,78.471,36.494,0,360
4721,1.02,0.192,0.024,9.04,-3.62,-3.9,-79.268,85.243,36.582,0,358
4743,1.02,0.204,0.02,7.03,-2.78,-3.9,-78.643,84.407,36.582,0,361
4763,1.024,0.196,0.036,7.17,-2.92,-4.73,-78.993,79.598,36.582,0,362
4784,1.02,0.196,0.016,6.96,-1.53,-3.69,-79.093,85.339,36.582,0,352
4805,1.012,0.18,0.024,10.57,-0.97,-1.88,-79.833,82.411,36.582,0,346
4826,1.016,0.196,0.008,8.7,-0.97,-0.28,-79.078,87.669,37.273,0,337
4847,1.024,0.188,0.028,8.07,-0.35,0.56,-79.748,80.14,37.447,0,335
4868,1.024,0.196,0.012,5.08,1.53,-1.18,-78.818,87.716,37.719,0,338
4888,1.008,0.2,0.008,5.63,0.28,1.81,-78.384,84.514,37.562,0,322
4910,1.024,0.192,0.024,4.17,1.11,1.39,-78.472,84.514,37.505,0,311
4930,1.016,0.212,0.012,3.13,2.02,2.37,-78.201,86.767,37.505,0,319
4951,1.016,0.212,0.024,4.66,1.32,2.43,-78.146,83.547,37.505,0,316
4972,1.016,0.212,0.016,3.48,1.32,1.6,-78.187,85.69,37.505,0,308
4993,1.004,0.204,0.004,4.87,1.18,2.02,-78.518,88.883,37.505,0,332
5013,1.012,0.208,0.012,4.73,1.25,1.39,-78.373,86.705,37.757,0,394
5035,1.016,0.212,0.016,4.31,0,0.97,-78.344,88.905,38.023,0,245
5055,1.008,0.216,0.012,-1.6,-0.7,2.37,-77.14,82.017,37.951,0,237
5075,1.02,0.2,0.016,8.49,-0.49,1.25,-78.979,98.137,37.851,0,328
5097,1.008,0.22,0,5.98,-1.25,2.5,-77.694,90.007,38.008,0,324
5117,1.028,0.224,0.024,-2.43,2.92,0.63,-77.645,83.891,38.008,0,328
5138,1.008,0.208,0.008,3.48,-0.21,2.64,-78.338,87.804,38.008,0,328
5159,1.016,0.216,0.02,8,-0.83,1.25,-77.954,84.716,38.008,0,335
5180,1.024,0.228,0.008,0.49,0.77,0.07,-77.446,87.997,38.008,0,356
5200,1.008,0.208,0.016,3.13,0.42,1.74,-78.313,85.608,38.238,0,366
5222,1.016,0.204,0,2.16,1.67,2.5,-78.217,88.926,38.03,0,373
5242,1.016,0.216,0.008,0.7,1.88,1.95,-77.925,85.77,38.367,0,366
5263,1.012,0.208,0.004,0.9,2.23,1.53,-77.555,86.94,38.324,0,363
5284,1.024,0.216,0,1.6,3.13,2.23,-78.095,90.007,38.224,0,336
5305,1.016,0.224,0.012,1.81,1.95,3.06,-77.555,86.94,38.224,0,312
5325,1.02,0.228,0.008,0.28,2.02,2.16,-77.398,87.997,38.224,0,302
5346,1.024,0.22,0.016,0.07,1.32,2.02,-77.849,85.847,38.224,0,303
5367,1.012,0.216,0.012,-0.28,0.7,2.23,-77.939,86.827,38.224,0,317
5388,1.012,0.216,0.016,-0.77,1.53,2.3,-77.925,85.77,38.332,0,324
5408,1.02,0.216,0.016,-1.67,1.81,2.92,-78.211,87.845,38.388,0,327
5430,1.012,0.216,0.004,-0.77,1.39,2.71,-78.12,87.845,38.253,0,316
5450,1.008,0.224,0.012,-1.32,0.7,3.62,-77.46,86.94,38.317,0,314
5472,1.012,0.22,0.008,-1.88,0.07,3.27,-77.733,87.924,38.267,0,315
5492,1.012,0.224,0.008,-1.6,0.07,3.83,-77.517,87.961,38.267,0,298
5513,1.016,0.216,0.004,-2.57,0.42,3.55,-78.001,88.946,38.267,0,297
5534,1.004,0.216,0.004,-2.92,-0.56,3.83,-77.862,88.946,38.267,0,298
5555,1.012,0.212,0.004,-2.09,-0.77,2.37,-78.172,88.926,38.267,0,473
5575,1.012,0.216,0.004,-3.41,-0.21,2.71,-77.909,88.946,37.922,0,126
5597,1.02,0.228,0.028,-9.74,0.28,4.1,-77.922,81.579,38.209,0,305
5617,1.012,0.188,-0.024,2.5,0,2.78,-78.729,99.28,38.109,0,338
5638,1.024,0.212,0.044,-3.76,1.46,4.17,-78.067,78.281,37.987,0,338
5659,1.028,0.216,0.008,-8.7,2.57,3.27,-78.132,87.885,37.973,0,334
5680,1.004,0.2,0.02,3.34,-2.3,4.38,-78.685,84.296,37.973,0,334
5700,1.024,0.22,0.012,-0.9,-0.97,2.09,-77.863,86.884,37.973,0,344
5722,1.024,0.22,0.016,-1.81,-0.42,2.16,-77.849,85.847,37.973,0,350
5742,1.02,0.204,0.02,0.42,0.7,3.41,-78.643,84.407,37.973,0,362
5763,1.008,0.212,0.008,-2.57,1.25,3.76,-78.156,86.767,37.973,0,380
5784,1.016,0.2,0.008,-1.74,1.32,2.99,-78.59,86.64,37.694,0,384
5805,1.012,0.196,0.012,-1.25,1.18,3.69,-78.373,86.705,37.845,0,384
5825,1.02,0.2,0.02,0.21,1.81,3.27,-78.858,84.296,37.758,0,364
5847,1.016,0.216,0,-0.56,1.39,3.55,-78.003,90.007,37.879,1,330
5867,1.016,0.208,0.02,-0.9,0.28,3.34,-78.384,84.514,37.915,1,317
5888,1.02,0.2,0.008,-0.28,-0.07,3.62,-78.903,87.716,37.915,1,313
5909,1.024,0.204,0.012,-0.28,-0.63,3.83,-78.72,86.64,37.915,1,312
5929,1.02,0.208,0.008,-0.14,-0.97,3.76,-78.903,87.716,37.915,1,314
5950,1.016,0.204,0.004,-0.83,-0.42,4.87,-78.609,90.007,37.915,1,331
5971,1.012,0.204,0,-0.63,-0.77,4.17,-78.65,88.883,37.737,1,328
5992,1.012,0.2,0,-1.74,-1.25,5.08,-78.827,90.007,37.572,1,327
6012,1.016,0.196,0.004,-0.56,-0.97,4.38,-79.085,88.837,37.628,1,338
6034,1.024,0.208,0.016,1.11,-0.83,3.83,-78.491,85.608,37.564,1,326
6054,1.024,0.212,0.008,-0.83,-0.14,4.1,-78.301,87.845,37.607,1,314
6075,1.024,0.204,0.012,-0.42,-0.07,4.24,-78.72,86.64,37.607,1,319
6096,1.02,0.208,0,-1.39,0.14,5.63,-78.48,90.007,37.607,1,375
6117,1.024,0.2,0,-2.02,0.35,6.26,-79.078,87.669,37.607,1,303
6137,1.016,0.192,0.012,-5.77,-0.21,5.84,-78.593,82.191,37.607,1,175
6158,1.024,0.208,0.036,-0.83,0.28,4.38,-80.094,104.357,37.172,1,351
6179,0.992,0.188,-0.004,2.02,-1.6,4.17,-79.272,91.226,37.085,1,366
6200,1.028,0.192,0.008,-6.82,4.1,4.31,-79.418,87.621,37.279,1,370
6221,1.02,0.184,0.008,-1.74,1.88,5.91,-79.771,87.517,37.033,1,360
6242,1.016,0.192,0.004,2.78,1.25,5.77,-79.302,88.813,37.108,1,358
6262,1.028,0.208,0.008,-3.41,3.06,5.43,-78.559,87.804,37.108,1,359
6284,1.024,0.188,0.02,0.07,1.74,5.22,-79.545,83.934,37.108,1,367
6304,1.024,0.204,0.004,-0.07,2.09,6.05,-78.78,91.13,37.108,1,371
6325,1.016,0.196,-0.004,-1.6,3.2,5.36,-79.56,91.226,37.108,1,390
6346,1.02,0.192,0.004,-2.02,2.92,5.08,-79.731,87.517,36.909,1,394
6367,1.02,0.176,0,0.42,4.17,5.15,-80.216,90.007,36.666,1,385
6387,1.016,0.188,0.008,0.21,3.06,4.87,-79.513,87.57,36.835,1,365
6409,1.024,0.192,0.004,-1.67,2.3,5.36,-79.384,88.813,36.811,1,336
6429,1.028,0.18,0.012,-0.28,1.95,4.59,-80.053,86.192,36.677,1,323
6450,1.024,0.184,0.012,0.07,0.97,4.52,-79.798,86.275,36.677,1,322
6471,1.024,0.188,0.012,-1.32,1.6,4.1,-79.798,86.275,36.677,1,316
6492,1.024,0.184,0.008,-0.9,1.6,4.87,-79.771,87.517,36.677,1,317
6512,1.016,0.18,0.012,-1.18,1.25,5.01,-80.214,88.705,36.677,1,325
6534,1.016,0.184,0.008,-1.32,0.9,4.59,-79.731,87.517,36.513,1,328
6554,1.016,0.172,-0.004,-0.63,0.49,3.69,-80.395,91.339,36.499,1,339
6575,1.024,0.176,0.004,-0.7,0.7,3.97,-80.251,88.705,36.444,1,340
6596,1.02,0.176,0.008,-0.77,1.32,3.41,-80.206,87.404,36.294,1,324
6617,1.02,0.184,0.004,-0.7,1.25,3.55,-79.778,88.761,36.444,1,317
6637,1.024,0.184,0.004,-1.32,1.74,3.27,-79.817,88.761,36.444,1,417
6659,1.024,0.18,0,-2.23,1.46,3.48,-80.034,88.734,36.444,1,163
6679,1.024,0.18,0.008,-5.08,0.35,4.31,-79.843,78.696,36.444,1,252
6701,1.024,0.168,0.012,0.21,-0.07,2.99,-80.453,99.47,36.444,1,338
6721,1.02,0.168,-0.02,-1.04,2.43,2.78,-80.588,96.796,36.17,1,356
6742,1.02,0.172,0.016,-6.12,2.23,3.83,-80.394,84.692,36.236,1,361
6763,1.016,0.164,0.004,2.23,-0.28,3.48,-80.834,88.609,36.176,1,367
6784,1.024,0.168,0.004,3.48,0.35,2.71,-80.686,88.643,36.189,1,366
6804,1.024,0.184,0.004,1.39,0.97,2.02,-79.817,88.761,36.161,1,352
6825,1.024,0.18,0.02,1.18,1.18,2.5,-80.206,87.404,36.161,1,360
6846,1.016,0.18,0.008,0.56,0.97,4.31,-79.542,86.354,36.161,1,365
6866,1.024,0.184,0.012,-0.97,1.53,3.69,-79.81,87.517,36.161,1,367
6888,1.016,0.16,-0.004,1.11,1.6,2.57,-81.054,91.439,36.161,1,373
6908,1.012,0.172,0.02,0.63,1.18,3.06,-80.296,83.374,36.214,1,372
6929,1.02,0.164,-0.008,0,1.18,3.27,-80.861,92.8,36.206,1,354
6950,1.02,0.16,0.008,0.35,0.63,3.2,-81.08,87.144,36.324,1,339
6971,1.012,0.172,0.012,1.25,0.35,2.92,-80.337,86.015,35.958,1,337
6991,1.024,0.188,0.004,0.07,0,3.27,-79.6,88.788,36.181,1,314
7013,1.024,0.176,0.012,1.25,0.35,3.69,-80.497,87.343,36.181,1,316
7033,1.024,0.176,0.008,1.53,-0.21,3.83,-80.027,87.462,36.181,1,311
7054,1.032,0.18,0.008,0.83,-0.14,3.27,-79.81,87.517,36.181,1,304
7075,1.024,0.18,0.012,0.49,-0.21,3.41,-80.015,86.192,36.181,1,310
7096,1.016,0.176,0,1.25,-0.63,3.34,-80.178,90.007,36.246,1,336
7116,1.02,0.168,0.004,1.18,-0.63,3.34,-80.65,88.643,36.108,1,329
7138,1.02,0.164,0.004,1.67,-0.77,2.57,-80.869,88.609,36.092,1,330
7158,1.012,0.176,-0.008,0.56,-0.63,2.71,-80.13,92.609,36.107,1,346
7179,1.024,0.168,0,0.42,-0.77,2.43,-80.251,88.705,35.929,1,401
7200,1.024,0.176,0.008,0.56,-0.56,2.57,-80.206,87.404,35.929,1,129
7221,1.024,0.18,0.008,0.77,-2.78,2.57,-80.244,92.609,35.929,1,345
7241,1.024,0.168,0.004,1.53,-1.25,2.78,-80.686,88.643,35.929,1,333
7263,1.016,0.176,0,-4.1,0.35,3.34,-80.178,90.007,35.929,1,337
7283,1.02,0.16,-0.008,-0.35,-0.97,2.99,-81.08,92.869,35.938,1,359
7304,1.028,0.172,0,4.8,-0.63,2.3,-80.507,90.007,35.997,1,364
7325,1.024,0.172,-0.012,2.23,1.04,1.53,-80.448,93.998,35.835,1,366
7346,1.024,0.164,0.012,2.92,0.63,1.25,-80.883,85.821,36.064,1,369
7366,1.024,0.18,-0.012,0,0.83,3.2,-79.771,92.496,36.102,1,356
7388,1.024,0.184,-0.004,0.77,0.28,2.92,-79.817,88.761,36.129,1,357
7408,1.024,0.176,0.004,0.07,1.46,2.09,-80.214,91.309,36.129,1,355
7429,1.02,0.168,-0.004,0.21,1.6,1.81,-80.65,91.371,36.129,1,343
7450,1.032,0.164,-0.024,0.35,2.78,1.88,-80.882,98.333,36.129,1,331
7471,1.016,0.16,0,3.48,0.35,1.32,-81.057,90.007,36.115,1,340
7491,1.024,0.164,-0.004,6.12,-0.77,-0.07,-80.904,91.404,36.097,1,340
7513,1.024,0.164,0,5.08,-2.64,0.7,-80.907,90.007,36.098,1,335
7533,1.028,0.164,-0.004,6.19,-3.06,1.88,-80.939,91.404,36.433,1,330
7554,1.028,0.18,0,5.15,-2.92,2.3,-79.64,88.788,36.196,1,312
7575,1.028,0.184,0,3.62,-2.43,2.57,-79.203,92.344,36.206,1,306
7596,1.024,0.188,-0.02,2.02,-1.67,2.71,-79.091,96.988,36.206,1,307
7616,1.028,0.188,-0.016,2.85,-1.95,2.71,-79.606,94.872,36.206,1,315
7638,1.028,0.184,-0.02,2.85,-1.25,3.62,-79.8,96.211,36.206,1,310
7658,1.02,0.18,-0.02,2.37,-0.7,3.62,-79.938,96.347,36.206,1,332
7678,1.02,0.176,-0.032,2.5,-0.56,3.34,-80.059,100.312,36.232,1,360
7700,1.016,0.172,-0.032,3.34,-0.28,2.57,-80.236,100.547,36.13,1,374
7720,1.02,0.176,-0.016,2.64,1.25,2.78,-79.976,96.347,36.392,1,174
7742,1.016,0.188,-0.04,2.64,-1.46,3.48,-79.626,102.272,36.227,1,344
7762,1.028,0.176,-0.012,1.6,0.42,2.92,-80.059,100.312,36.276,1,332
7784,1.008,0.188,-0.016,-5.7,1.18,4.24,-79.404,94.872,36.276,1,337
7804,1.028,0.176,-0.036,1.39,-0.97,3.83,-80.093,101.568,36.276,1,338
7825,1.04,0.184,-0.004,3.48,1.46,4.31,-79.97,91.252,36.276,1,337
7846,1.016,0.172,-0.032,0.7,2.92,3.27,-80.236,100.547,36.276,1,361
7867,1.024,0.172,-0.028,-1.04,5.08,3.76,-80.348,99.253,36.214,1,365
7887,1.016,0.184,-0.032,-4.87,6.89,5.43,-79.545,98.66,36.051,1,368
7909,1,0.176,-0.016,-1.6,4.73,4.1,-80.57,92.733,36.135,1,367
7929,1.012,0.168,-0.016,-0.49,3.69,3.62,-79.976,93.821,36.286,1,353
7951,1.02,0.184,-0.004,-2.92,3.62,4.66,-79.778,91.252,36.155,1,337
7971,1.028,0.176,-0.028,-0.83,3.55,4.1,-80.171,99.047,36.155,1,318
7992,1.024,0.176,-0.008,-1.18,1.6,4.94,-80.244,92.609,36.155,1,315
8013,1.028,0.168,-0.02,1.74,0.77,3.9,-80.66,96.796,36.155,1,312
8034,1.016,0.168,-0.032,-0.9,0.83,4.8,-80.451,100.792,36.155,1,326
8054,1.024,0.164,-0.028,0.56,1.88,4.59,-80.778,99.696,35.908,0,326
8076,1.016,0.176,-0.016,0.35,1.81,4.17,-80.988,97.132,35.876,0,323
8096,1.02,0.156,-0.024,1.39,1.46,3.9,-80.812,98.333,35.898,0,324
8118,1.024,0.16,-0.016,0.9,1.67,3.83,-80.624,96.796,35.909,0,325
8138,1.024,0.18,-0.012,0.35,1.18,4.17,-80.015,93.821,35.825,0,309
8159,1.024,0.172,-0.016,1.81,0.77,4.31,-80.431,95.322,35.825,0,302
8180,1.024,0.176,-0.024,0.7,0.9,4.59,-80.165,97.772,35.825,0,304
8201,1.024,0.168,-0.024,1.53,1.18,4.17,-80.596,98.137,35.825,0,398
8221,1.024,0.164,-0.02,1.39,1.11,4.03,-80.841,96.96,35.825,0,166
8243,1.02,0.16,-0.012,1.25,0,4.31,-80.741,98.333,35.715,0,304
8263,1.02,0.16,-0.04,4.8,-0.21,3.34,-81.21,98.753,35.714,0,344
8284,1.016,0.168,-0.02,-2.23,2.43,3.76,-80.273,100.547,35.666,0,353
8305,1.016,0.164,-0.024,-3.9,2.09,3.9,-80.741,98.333,35.652,0,353
8326,1.036,0.172,-0.008,3.9,-0.21,4.38,-80.569,92.67,35.683,0,343
8347,1.032,0.172,-0.02,3.34,2.71,2.43,-80.481,96.64,35.683,0,350
8368,1.028,0.168,-0.012,2.16,3.62,2.92,-80.701,94.093,35.683,0,346
8388,1.032,0.176,-0.016,-0.97,5.22,4.24,-80.289,95.201,35.683,0,354
8410,1.016,0.172,-0.016,-0.14,3.62,4.8,-81.032,94.296,35.683,0,365
8430,1.02,0.16,-0.016,-0.35,2.85,3.48,-80.812,94.192,35.569,0,383
8451,1.02,0.164,-0.02,1.18,3.69,2.71,-81.092,97.132,35.629,0,376
8472,1.028,0.16,-0.016,-0.28,4.59,3.06,-81.116,95.718,35.754,0,359
8493,1.02,0.156,-0.032,-0.28,5.08,3.55,-81.132,101.6,35.679,0,344
8514,1.028,0.156,0.008,0.97,5.22,2.71,-81.366,87.071,35.481,0,320
8535,1.024,0.168,-0.012,0.83,4.31,1.95,-80.666,94.093,35.481,0,316
8555,1.024,0.168,-0.004,-0.14,4.45,2.78,-80.686,91.371,35.481,0,311
8577,1.028,0.164,0,0.56,5.22,3.55,-80.942,90.007,35.481,0,315
8597,1.028,0.164,-0.008,1.67,4.87,3.55,-81.08,92.869,35.481,0,319
8617,1.028,0.16,-0.008,0.77,5.29,3.34,-80.686,91.371,35.525,0,330
8639,1.02,0.164,-0.008,1.18,4.66,4.03,-81.125,90.007,35.787,0,342
8659,1.024,0.164,0,2.57,4.1,4.03,-80.907,90.007,35.698,0,332
8680,1.028,0.168,-0.008,1.32,5.22,3.9,-80.714,92.733,35.724,0,339
8701,1.024,0.164,-0.004,0.9,5.15,3.13,-80.904,91.404,35.508,0,331
8722,1.028,0.164,-0.004,-0.42,5.36,3.34,-80.939,91.404,35.538,0,408
8742,1.028,0.168,-0.004,-0.56,5.7,3.62,-80.722,91.371,35.538,0,122
8764,1.024,0.18,0.02,-1.32,3.41,3.34,-80.841,96.96,35.538,0,353
8784,1.024,0.16,-0.036,2.43,2.92,2.71,-80.515,83.217,35.538,0,345
8805,1.024,0.156,0,-6.12,6.82,2.09,-81.054,91.439,35.658,0,366
8826,1.02,0.132,0,0.14,3.9,2.37,-82.632,90.007,35.6,0,373
8847,1.032,0.148,0.028,4.38,2.71,2.85,-81.702,79.293,35.636,0,373
8867,1.024,0.16,-0.004,3.34,4.24,2.16,-81.123,91.439,35.774,0,379
8889,1.028,0.176,0.012,0.9,4.87,2.16,-80.269,86.106,35.907,0,363
8909,1.028,0.168,0,1.32,5.5,3.27,-80.724,90.007,35.894,0,365
8930,1.024,0.172,0,-1.32,5.08,3.62,-80.471,90.007,35.894,0,369
8951,1.028,0.176,0.004,-4.03,5.7,2.71,-80.65,88.643,35.894,0,366
8972,1.024,0.164,-0.012,-4.24,5.7,2.92,-80.57,87.28,35.894,0,358
8992,1.012,0.164,0.016,-4.94,6.33,3.34,-80.794,95.579,35.894,0,355
9014,1.008,0.164,0.016,-6.12,5.36,4.8,-80.722,84.434,35.94,0,347
9034,1.012,0.148,0.012,-3.34,4.03,3.34,-81.659,85.371,35.901,0,344
9055,1.004,0.152,0.012,-3.69,2.5,3.69,-81.371,85.492,35.779,0,341
9076,1.024,0.16,0.016,-4.8,2.92,3.97,-81.082,84.296,35.785,0,323
9097,1.024,0.156,0.024,-3.34,2.37,4.38,-81.244,81.26,35.76,0,313
9117,1.024,0.16,0.02,-3.06,2.09,4.03,-81.057,82.881,35.76,0,309
9139,1.032,0.156,0.028,-3.2,2.09,3.48,-81.414,78.117,35.76,0,305
9159,1.024,0.16,0.024,-2.3,1.25,2.99,-81.234,78.414,35.76,0,322
9181,1.024,0.152,0.028,-1.32,0.7,3.48,-81.2,78.414,35.76,0,332
9201,1.024,0.156,0.032,0.07,-0.28,3.69,-81.166,78.414,35.567,0,329
9222,1.024,0.148,0.024,-0.07,-0.28,4.17,-81.676,80.795,35.724,0,334
9243,1.024,0.152,0.012,0.42,0.14,4.45,-81.537,85.492,35.625,0,441
9264,1.024,0.16,0.02,-0.14,0,3.62,-81.057,82.881,35.656,0,133
9284,1.02,0.164,0.036,-2.23,-2.64,3.83,-80.658,77.625,35.549,0,281
9306,1.028,0.152,-0.024,2.85,-1.04,2.71,-80.958,99.934,35.549,0,322
9326,1.016,0.16,0.016,-2.16,0.63,3.9,-81.787,85.371,35.549,0,334
9347,1.024,0.16,0.016,-2.3,-0.14,2.57,-81.922,83.666,35.549,0,338
9368,1.024,0.144,0.024,3.27,-1.74,2.78,-81.892,80.544,35.549,0,364
9389,1.032,0.144,0.008,6.4,-1.6,1.95,-82.05,86.827,35.419,0,373
9409,1.02,0.156,0.02,3.2,-2.02,0.83,-81.24,82.7,35.469,0,381
9431,1.028,0.16,0.008,2.3,-1.11,2.02,-81.148,87.144,35.415,0,382
9451,1.024,0.148,0,3.27,-1.25,3.97,-81.782,90.007,35.509,0,386
9472,1.024,0.168,0.012,0.42,0.07,4.52,-80.666,85.921,35.612,0,382
9493,1.036,0.16,0.012,2.99,1.32,2.64,-81.802,93.101,35.612,0,373
9513,1.024,0.152,0.008,4.38,0.97,2.37,-80.918,85.821,35.612,0,357
9534,1.028,0.164,-0.004,1.81,1.88,2.78,-80.907,90.007,35.612,0,333
9555,1.02,0.152,0.008,1.46,1.81,2.99,-81.519,86.994,35.612,0,340
9576,1.016,0.16,0.008,1.88,1.46,2.23,-81.046,87.144,35.442,0,338
9596,1.024,0.148,0.008,1.25,1.04,2.37,-81.77,86.912,35.78,0,337
9618,1.016,0.136,0.012,1.95,0.42,2.16,-82.353,84.964,35.603,0,335
9638,1.024,0.14,0.004,2.57,1.11,4.38,-82.218,88.37,35.616,0,335
9659,1.032,0.156,0.012,0.9,1.74,3.9,-81.549,83.997,35.62,0,315
9680,1.028,0.156,0.016,2.64,1.04,2.92,-81.352,85.608,35.62,0,309
9701,1.032,0.156,0.008,1.18,1.67,4.31,-80.467,84.692,35.62,0,325
9722,1.028,0.164,0.008,0.21,2.23,5.22,-80.931,87.214,35.62,0,317
9743,1.02,0.156,0.004,1.53,1.32,4.52,-81.308,88.538,35.62,0,321
9763,1.02,0.156,0.004,1.74,1.25,2.57,-81.308,88.538,35.562,0,336
9785,1.024,0.152,0,1.81,1.32,2.78,-81.563,90.007,35.584,0,450
9805,1.012,0.152,0.004,0.83,0.97,2.5,-81.461,88.499,35.446,0,189
9826,1.02,0.148,0.012,-3.41,-0.49,4.17,-81.723,85.371,35.317,0,277
9847,1.04,0.132,-0.008,4.59,0.28,1.88,-81.882,110.933,35.335,0,339
9868,1.012,0.152,-0.004,3.55,0.28,3.97,-82.223,85.107,35.335,0,343
9888,1.028,0.144,0.008,-2.99,1.39,3.69,-81.648,86.994,35.335,0,344
9910,1.02,0.144,0.02,3.76,-0.9,4.24,-81.894,82.099,35.335,0,343
9930,1.024,0.148,-0.004,5.7,-1.81,3.2,-81.779,91.555,35.335,0,348
9951,1.028,0.156,0.004,0.21,-1.18,1.95,-81.374,88.538,35.326,0,368
9972,1.024,0.148,0,2.09,-0.56,2.85,-81.782,90.007,35.326,0,371
9993,1.02,0.144,0.004,1.46,0.35,3.9,-81.967,88.415,35.322,0,378
10013,1.024,0.152,-0.008,0.21,1.39,4.03,-81.53,90.007,35.167,0,384
10035,1.024,0.148,0,2.57,2.16,3.48,-81.504,94.521,35.269,0,365
10055,1.02,0.152,0.004,2.71,1.88,3.9,-81.285,85.608,35.269,0,350
10076,1.024,0.152,0,1.74,2.16,2.5,-81.563,90.007,35.269,0,320
10097,1.028,0.144,0.012,2.71,0.97,2.09,-82.005,85.243,35.269,0,305
10118,1.04,0.152,0.008,1.11,2.5,3.69,-81.68,86.994,35.269,0,309
10138,1.028,0.148,0.008,-0.83,2.37,3.55,-81.802,86.912,35.326,0,329
10160,1.024,0.144,0,-0.14,2.09,3.13,-82.001,90.007,35.299,0,330
10180,1.028,0.16,0,-1.39,3.13,3.9,-81.159,90.007,35.264,0,329
10201,1.024,0.144,0.004,-0.7,2.99,3.69,-81.939,90.007,35.286,0,326
10222,1.024,0.148,0.008,-0.35,2.43,2.99,-81.998,88.415,35.344,0,300
10243,1.024,0.144,0.004,-0.9,2.3,3.62,-81.779,88.458,35.313,0,320
10264,1.024,0.152,0.008,-1.18,2.23,3.55,-81.551,86.994,35.313,0,318
10285,1.024,0.152,-0.004,-1.67,2.09,3.62,-81.56,91.514,35.313,0,312
10305,1.024,0.148,0.004,-2.09,2.16,3.69,-81.779,88.458,35.313,0,313
10327,1.024,0.14,0,-0.63,1.67,3.41,-82.221,90.007,35.308,0,394
10347,1.024,0.14,0,-1.53,1.67,3.55,-82.221,90.007,35.286,0,242
10368,1.02,0.148,0.004,-5.98,1.11,4.38,-81.139,79.83,35.157,0,191
10389,1.028,0.136,0.036,-0.7,0.9,2.64,-82.602,107.362,35.109,0,345
10409,1.016,0.136,-0.024,2.09,0.14,2.64,-82.178,86.736,34.984,0,338
10431,1.032,0.164,0.012,-5.5,2.02,3.55,-80.953,85.821,34.865,0,345
10451,1.028,0.136,0.016,-0.77,0.77,4.24,-82.418,83.296,34.865,0,347
10472,1.024,0.136,-0.004,4.17,-0.97,2.71,-82.438,91.691,34.865,0,350
10493,1.032,0.152,0.004,-1.67,0.28,2.5,-81.624,88.499,34.865,0,362
10514,1.02,0.136,0.008,-0.56,0.35,2.09,-82.398,86.64,34.865,0,379
10535,1.024,0.148,0.004,-0.07,0.63,2.71,-81.563,90.007,35.094,0,391
10556,1.024,0.152,-0.004,-2.02,1.74,2.85,-81.779,88.458,35.012,0,397
10576,1.024,0.14,0.008,0.63,2.37,2.09,-82.629,91.742,34.766,1,397
10598,1.016,0.136,0,-0.21,2.16,2.99,-81.551,86.994,34.997,1,369
10618,1.02,0.156,-0.012,-0.21,2.23,2.16,-81.285,94.406,35.139,1,334
10640,1.024,0.152,0.004,-1.25,0.77,1.32,-81.56,88.499,35.139,1,320
10660,1.032,0.152,0.008,-2.64,1.88,1.32,-81.616,86.994,35.139,1,313
10681,1.028,0.148,0.016,-3.27,2.43,2.71,-81.766,83.836,35.139,1,313
10702,1.024,0.136,0.012,-2.64,1.74,2.5,-82.412,84.964,35.139,1,331
10723,1.024,0.14,-0.004,-1.95,1.6,2.5,-82.029,88.415,34.982,1,330
10744,1.028,0.148,0.008,-2.57,1.53,2.57,-81.537,85.492,34.846,1,330
10765,1.02,0.152,0.004,-3.76,1.95,2.71,-81.308,88.538,35.059,1,321
10785,1.02,0.152,0.004,-3.97,2.16,2.71,-81.527,88.499,35.099,1,315
10807,1.024,0.152,0.004,-5.01,2.85,3.69,-81.56,88.499,34.948,1,324
10827,1.024,0.148,0.012,-4.73,3.2,3.83,-81.755,85.371,34.948,1,309
10849,1.028,0.148,0.008,-4.1,3.69,4.03,-81.802,86.912,34.948,1,307
10869,1.028,0.144,0.004,-3.62,3.41,3.76,-82.029,88.415,34.948,1,315
10890,1.024,0.144,0.008,-2.85,3.06,3.55,-82.467,88.322,34.948,1,475
10911,1.024,0.14,0.004,-2.71,1.88,2.78,-82.132,85.107,34.795,1,71
10932,1.02,0.152,0.016,-6.89,1.25,4.24,-81.366,72.036,34.782,1,337
10953,1.012,0.136,-0.036,-1.32,2.3,2.5,-82.092,104.834,34.694,1,356
10974,1.028,0.124,0.004,-1.04,2.99,3.41,-83.125,88.159,34.463,1,356
10994,1.032,0.156,0.016,-6.05,2.78,3.06,-81.366,84.15,34.866,1,351
11016,1.02,0.14,0.02,1.74,0.35,3.06,-82.112,81.876,34.866,1,354
11036,1.024,0.144,0.008,3.2,0,2.09,-81.989,86.827,34.866,1,360
11058,1.032,0.156,0.016,-0.28,0.77,2.02,-81.275,79.83,34.866,1,365
11078,1.028,0.148,0.024,0.7,1.04,3.13,-81.755,85.371,34.866,1,383
11099,1.02,0.136,0.012,0.21,1.11,3.55,-81.974,85.243,34.714,1,397
11120,1.028,0.14,0.012,-1.32,2.64,3.62,-82.223,85.107,34.54,1,402
11141,1.016,0.136,0.004,0.49,2.71,1.39,-82.379,88.322,34.695,1,395
11162,1.024,0.136,0.012,1.25,2.57,1.32,-82.412,84.964,34.534,1,364
11183,1.024,0.148,0.008,-0.9,1.67,2.37,-81.77,86.912,34.66,1,324
11204,1.028,0.136,0.024,0.07,1.95,2.23,-82.355,79.998,34.66,1,312
11225,1.028,0.144,0.012,0.35,0.83,2.09,-81.787,85.371,34.66,1,313
11245,1.032,0.148,0.016,0.14,1.46,2.23,-82.014,83.666,34.66,1,312
11267,1.04,0.156,0.016,0.21,1.74,2.64,-81.953,83.666,34.66,1,323
11287,1.024,0.136,0.016,0.35,1.88,3.48,-82.389,83.296,34.71,1,330
11309,1.02,0.128,0.016,0.35,1.39,2.02,-82.798,82.881,34.816,1,326
11329,1.016,0.136,0.012,0.35,0.97,1.88,-82.353,84.964,34.712,1,326
11350,1.016,0.14,0.004,0.07,1.18,1.88,-82.157,88.37,34.72,1,333
11371,1.024,0.148,0.008,0.42,0.56,1.88,-81.77,86.912,34.624,1,322
11392,1.024,0.148,0.012,1.46,0.49,0.83,-82.223,85.107,34.624,1,312
11413,1.028,0.152,0.008,1.95,0.49,0.77,-81.984,83.666,34.624,1,316
11433,1.024,0.144,0.012,1.81,0.49,0.77,-81.551,86.994,34.624,1,414
11454,1.028,0.144,0.008,0.7,1.18,1.11,-82.02,86.827,34.624,1,181
11475,1.02,0.152,0.024,-0.7,0.97,2.02,-81.427,81.033,34.752,1,255
11496,1.028,0.152,-0.008,0.7,0.56,2.5,-81.584,93.02,34.843,1,357
11516,1.02,0.128,-0.016,0.7,3.06,1.32,-82.798,97.132,34.985,1,369
11538,1.016,0.156,0.044,-4.45,2.16,2.3,-80.942,74.254,34.936,1,370
11558,1.028,0.148,0.004,2.16,0.63,1.74,-81.974,85.243,34.896,1,357
11580,1.024,0.144,0.02,4.94,1.25,2.16,-82.06,88.415,34.896,1,357
11600,1.024,0.156,0.004,2.71,1.88,1.39,-81.135,85.717,34.896,1,363
11622,1.024,0.156,0.008,1.88,2.43,2.09,-81.333,87.071,34.896,1,372
11642,1.028,0.156,0.012,0,2.71,3.2,-81.352,85.608,34.896,1,381
11663,1.024,0.156,0.016,0.07,2.43,2.23,-81.299,84.15,34.874,1,397
11684,1.024,0.14,0.008,0.83,2.43,1.67,-82.208,86.736,35.245,1,389
11705,1.02,0.136,0.02,0.63,2.43,1.95,-82.331,81.64,35.24,1,370
11725,1.024,0.148,0.004,0.14,2.43,3.13,-81.779,88.458,35.137,1,344
11747,1.028,0.156,0.024,-0.28,2.78,2.92,-81.984,83.666,35.217,1,317
11767,1.024,0.152,0.016,-0.14,1.81,3.41,-81.028,81.475,35.217,1,310
11789,1.024,0.148,0.016,0.35,1.39,3.2,-81.925,82.099,35.217,1,305
11809,1.024,0.148,0.02,2.3,0.07,2.92,-81.708,82.31,35.217,1,309
11830,1.028,0.144,0.016,2.16,0,3.48,-81.984,83.666,35.217,1,309
11851,1.02,0.152,0.012,1.04,0.56,3.97,-81.504,85.492,35.186,1,324
11872,1.016,0.148,0.008,2.78,0.21,3.55,-81.706,86.912,35.07,1,323
11893,1.02,0.148,0.008,1.11,-0.63,3.27,-81.738,86.912,35.125,1,335
11914,1.02,0.148,0.016,1.81,-1.6,3.13,-81.755,85.371,35.285,1,327
11934,1.024,0.156,0.008,0.9,-0.49,4.03,-81.366,87.071,35.102,1,314
11956,1.02,0.156,0.004,1.04,-0.56,3.97,-81.333,87.071,35.116,1,318
11976,1.028,0.148,0.008,-0.28,-0.21,4.1,-81.802,86.912,35.116,1,418
11998,1.028,0.152,0.012,1.18,-0.9,3.06,-81.569,85.492,35.116,1,100
12018,1.016,0.148,0.008,0.56,-3.27,3.2,-81.706,86.912,35.116,1,346
12039,1.024,0.14,0.008,0.9,-2.02,2.78,-82.208,86.736,35.116,1,353
12060,1.024,0.144,-0.024,-1.67,0.14,3.06,-81.892,99.47,34.87,1,358
12081,1.02,0.144,0.016,-2.43,-1.6,3.2,-82.486,93.373,35.106,1,362
12102,1.032,0.136,0,5.43,-3.34,2.71,-81.74,82.31,34.957,1,364
12123,1.036,0.152,0.004,3.83,0.07,1.74,-81.41,90.007,35.084,1,352
12143,1.028,0.144,0.012,2.57,0.35,1.81,-82.005,85.243,35.075,1,357
12165,1.024,0.156,0.004,0.83,0.83,2.92,-81.341,88.538,35.075,1,361
12185,1.024,0.148,0.004,0.28,0.49,2.57,-81.779,88.458,35.075,1,369
12206,1.024,0.152,0.008,1.39,0.14,2.02,-81.551,86.994,35.075,1,366
12227,1.02,0.14,-0.004,2.71,0.14,2.23,-82.188,91.643,35.075,1,375
12248,1.02,0.14,0,2.64,0.7,1.81,-82.389,96.717,34.983,1,350
12269,1.024,0.148,-0.012,0.35,0.14,2.92,-82.218,88.37,34.83,1,339
12290,1.024,0.148,0.004,0.97,-0.56,2.43,-82.032,90.007,34.958,1,334
12310,1.028,0.152,0,1.39,-0.7,2.71,-81.595,90.007,34.83,1,324
12332,1.028,0.148,0,-0.07,0.21,2.3,-81.814,90.007,34.921,1,312
12352,1.032,0.144,0,1.25,1.04,2.71,-82.063,90.007,34.921,1,312
12372,1.028,0.156,0.004,1.11,0.77,3.13,-81.374,88.538,34.921,1,310
12394,1.032,0.156,0,1.18,1.25,3.69,-81.41,90.007,34.921,1,309
12414,1.016,0.148,0,2.64,0,3.06,-81.718,90.007,34.921,1,331
12435,1.024,0.152,0.004,1.95,0.14,2.3,-81.527,88.499,34.877,1,333
12455,1.028,0.148,0.004,2.37,0.35,2.43,-81.779,91.555,34.667,1,331
12477,1.024,0.144,-0.004,1.95,1.74,2.99,-81.811,91.555,34.666,1,339
12497,1.024,0.148,-0.004,0.97,2.92,2.5,-81.779,91.555,34.836,1,416
12519,1.024,0.148,-0.004,2.5,4.87,1.88,-81.779,91.555,34.904,1,133
12539,1.02,0.152,-0.008,-0.14,4.87,1.81,-81.519,93.02,34.904,1,344
12561,1.02,0.152,0,1.11,5.63,2.43,-81.53,90.007,34.904,1,335
12581,1.02,0.156,-0.02,-5.08,6.12,3.34,-81.24,97.313,34.904,1,341
12602,1.012,0.14,0,-0.56,1.88,2.85,-82.632,90.007,34.904,1,355
12622,1.028,0.144,0.016,6.19,0.07,2.64,-81.366,84.15,35.006,1,364
12644,1.032,0.152,-0.008,3.9,2.43,2.23,-81.77,93.101,35.062,1,371
12664,1.028,0.148,0.012,0.49,3.97,4.17,-81.787,85.371,34.925,1,376
12686,1.024,0.156,0,-2.02,3.27,5.36,-81.344,90.007,35.038,1,374
12706,1.024,0.152,0.012,0.63,0.42,4.31,-81.537,85.492,35.139,1,363
12727,1.024,0.152,0.004,0.42,-0.35,4.66,-81.56,88.499,35.139,1,359
12748,1.024,0.148,-0.004,0.07,0.77,4.59,-81.779,91.555,35.139,1,344
12769,1.024,0.148,0,-0.28,1.88,4.94,-81.782,90.007,35.139,1,324
12789,1.024,0.152,0,-0.97,1.39,5.91,-81.471,85.492,35.139,0,326
12811,1.024,0.14,0.004,0,0.83,5.29,-82.441,90.007,34.789,0,332
12831,1.02,0.14,-0.004,-0.07,0.21,5.5,-82.208,86.736,34.751,0,334
12852,1.028,0.132,0.004,0.77,0.77,4.73,-82.686,88.271,34.677,0,333
12873,1.028,0.128,0,1.11,1.67,4.24,-82.909,90.007,34.641,0,329
12894,1.032,0.136,-0.004,0.63,1.6,4.66,-82.496,91.691,34.675,0,315
12915,1.024,0.14,0,0.49,1.25,5.5,-82.221,90.007,34.675,0,311
12936,1.024,0.152,0.004,0.49,0.56,5.98,-81.56,88.499,34.675,0,320
12956,1.024,0.148,0.004,0.9,0.77,5.57,-81.77,86.912,34.675,0,311
12978,1.032,0.144,0.004,0.63,0.9,4.66,-82.411,90.007,34.675,0,323
12998,1.024,0.132,-0.004,0.83,1.39,4.38,-82.661,90.007,34.701,0,358
13019,1.024,0.132,-0.004,0.56,1.39,4.03,-82.438,91.691,34.531,0,365
13040,1.024,0.14,0.008,1.32,1.95,3.76,-82.208,86.736,34.471,0,164
13061,1.028,0.132,-0.012,0,1.04,3.27,-82.659,95.201,34.41,0,350
13081,1.024,0.124,0.012,2.09,1.67,3.34,-83.07,84.479,34.552,0,337
13103,1.02,0.136,-0.02,-5.7,3.83,3.83,-82.331,98.373,34.552,0,340
13123,1.024,0.124,0,1.04,1.46,3.34,-83.102,90.007,34.552,0,347
13144,1.032,0.136,0.016,4.52,1.46,2.43,-82.31,90.007,34.552,0,349
13165,1.028,0.144,-0.02,2.78,2.71,1.39,-82.441,90.007,34.552,0,358
13186,1.028,0.128,0.008,2.78,4.66,1.67,-82.932,88.217,34.191,0,380
13207,1.012,0.144,-0.008,1.32,4.31,2.85,-81.895,93.187,34.589,0,390
13228,1.028,0.14,0.008,1.53,3.76,1.32,-82.238,86.736,34.658,0,390
13248,1.032,0.128,0.008,2.71,3.9,0.56,-82.922,86.43,34.664,0,381
13270,1.028,0.132,0.004,4.24,4.59,0.28,-82.686,88.271,34.604,0,349
13290,1.036,0.136,0.004,2.78,6.82,0.35,-82.524,88.322,34.604,0,328
13312,1.024,0.14,0.016,1.53,6.19,1.53,-82.173,81.876,34.604,0,319
13332,1.032,0.136,0.008,3.41,5.63,1.46,-82.029,88.415,34.604,0,318
13352,1.02,0.152,0.008,2.3,5.01,2.02,-81.703,83.836,34.604,0,319
13374,1.028,0.136,0.004,2.5,5.15,1.81,-82.467,88.322,34.639,0,333
13394,1.024,0.144,0.008,2.09,5.43,2.3,-81.989,86.827,34.879,0,325
13416,1.02,0.144,0.008,1.67,5.43,2.64,-81.958,86.827,34.988,0,332
13436,1.016,0.148,0.008,1.04,5.15,2.5,-81.706,86.912,35.057,0,338
13457,1.02,0.156,0.016,0.63,4.1,2.64,-81.266,84.15,34.973,0,322
13478,1.02,0.156,0.008,0.77,2.92,3.2,-81.549,83.997,34.87,0,311
13499,1.024,0.152,0.016,0.49,2.78,3.55,-81.755,85.371,34.87,0,314
13519,1.024,0.148,0.004,0.07,2.78,3.76,-81.802,86.912,34.87,0,380
13541,1.024,0.152,0.02,-0.14,2.5,3.69,-81.491,82.51,34.87,0,223
13561,1.016,0.152,0.028,-2.23,1.46,4.45,-81.356,79.568,34.825,0,229
13583,1.02,0.14,-0.016,-0.63,0.63,3.69,-82.141,96.527,35.174,0,349
13603,1.016,0.136,0.016,-3.76,2.16,4.8,-82.33,83.296,34.938,0,364
13624,1.02,0.136,0.004,-7.37,2.5,4.73,-82.408,88.322,34.727,0,370
13645,1.024,0.14,0.008,-2.5,0.14,5.15,-82.208,86.736,34.924,0,357
13666,1.036,0.136,0.024,1.18,0.42,4.31,-82.268,86.736,34.84,0,358
13687,1.028,0.14,0.004,-0.63,0.42,4.03,-81.308,82.7,34.84,0,358
13708,1.028,0.152,0.028,-3.2,1.18,4.38,-81.766,83.836,34.84,0,368
13728,1.024,0.14,0.004,-1.95,0.7,5.22,-82.218,88.37,34.84,0,372
13750,1.028,0.144,0.012,-5.43,1.6,4.94,-82.005,85.243,34.84,0,389
13770,1.028,0.136,0.004,-4.87,2.57,3.76,-82.467,88.322,34.488,0,386
13792,1.02,0.128,0.012,-3.48,3.2,3.62,-82.822,84.65,34.592,0,365
13812,1.028,0.136,-0.008,-5.01,4.45,3.76,-82.457,93.373,34.524,0,345
13833,1.028,0.136,0.032,-3.62,4.1,2.99,-82.557,78.03,34.511,0,324
13854,1.032,0.124,0.016,-1.74,3.41,2.43,-82.854,82.881,34.421,0,316
13875,1.028,0.128,0.02,-1.88,2.37,3.27,-82.851,81.125,34.421,0,311
13896,1.032,0.124,0.024,-0.21,1.74,3.9,-83.029,79.052,34.421,0,312
13917,1.028,0.128,0.024,0.97,1.18,3.83,-82.786,79.386,34.421,0,308
13938,1.024,0.124,0.024,1.11,0.35,2.02,-82.975,79.052,34.421,0,321
13959,1.028,0.132,0.012,1.04,0.35,2.37,-82.659,84.812,34.078,0,336
13979,1.024,0.124,0.012,1.67,-0.35,2.37,-83.07,84.479,34.35,0,334
14001,1.024,0.12,0.016,3.2,-1.04,1.81,-83.043,84.479,34.537,0,332
14021,1.02,0.124,0.016,4.31,-1.11,0.7,-82.47,84.964,34.581,0,321
14043,1.028,0.136,0.012,5.22,-1.46,0.63,-82.687,84.812,34.383,0,393
14063,1.028,0.132,0.016,5.22,-1.18,1.11,-82.636,83.095,34.383,0,178
14084,1.028,0.144,0.028,2.78,-2.99,1.95,-81.885,79.002,34.383,0,233
14105,1.032,0.124,-0.02,8.9,-2.85,-0.35,-83.067,99.17,34.383,0,326
14126,1.012,0.136,0.008,8.42,-4.87,1.11,-82.339,86.64,34.383,0,351
14147,1.028,0.132,0.012,5.08,-5.08,0.56,-82.659,84.812,34.639,0,366
14168,1.024,0.124,0.008,12.73,-8.7,2.3,-82.73,79.386,34.796,0,372
14189,1.024,0.124,0.02,15.93,-8.49,2.02,-82.05,93.187,34.686,0,380
14210,1.028,0.152,-0.016,10.78,-7.03,1.18,-81.41,90.007,34.774,0,373
14230,1.036,0.152,-0.004,8.49,-2.71,0.07,-81.656,91.514,34.795,0,363
14252,1.028,0.156,-0.024,4.31,0.49,-0.77,-81.277,98.753,34.795,0,366
14272,1.024,0.132,-0.008,8.7,-1.18,0.21,-82.647,93.475,34.795,0,366
14294,1.036,0.14,-0.024,7.23,1.32,-0.97,-82.199,99.735,34.795,0,362
14314,1.024,0.144,0.004,9.74,2.09,-0.42,-81.998,88.415,34.795,0,356
14334,1.032,0.136,-0.024,8.63,2.64,-0.97,-82.418,96.717,35.238,0,339
14356,1.028,0.14,0,8.56,2.37,-0.14,-82.277,91.643,35.3,0,333
14376,1.028,0.152,-0.004,7.65,2.85,0.83,-81.584,93.02,35.348,0,329
14398,1.024,0.168,-0.012,5.91,2.5,2.16,-80.666,94.093,35.344,0,329
14418,1.028,0.168,-0.016,5.91,1.88,2.99,-80.683,95.447,35.331,0,313
14439,1.02,0.168,-0.008,4.94,2.5,2.64,-80.643,92.733,35.331,0,309
14460,1.024,0.164,-0.004,5.57,1.67,1.81,-80.904,91.404,35.331,0,303
14481,1.024,0.172,-0.016,4.52,1.74,2.99,-80.431,95.322,35.331,0,314
14502,1.012,0.164,-0.004,5.08,1.39,2.71,-80.978,95.718,35.331,0,330
14523,1.02,0.156,-0.008,5.43,1.32,2.85,-81.232,95.863,35.582,0,328
14544,1.016,0.16,-0.02,4.03,1.88,4.31,-81.24,97.313,35.573,0,331
14565,1.02,0.148,-0.004,3.69,1.88,4.59,-81.747,91.555,35.901,0,340
14585,1.02,0.148,-0.012,4.38,1.74,4.8,-81.723,94.642,35.821,0,419
14607,1.024,0.156,-0.004,3.48,1.25,5.08,-81.341,91.476,35.719,0,101
14627,1.032,0.156,0.024,-0.07,0.7,6.05,-81.31,81.26,35.719,0,327
14649,1.02,0.136,-0.052,7.65,-0.42,4.73,-81.882,110.933,35.719,0,333
14669,1.032,0.144,0,1.53,1.81,5.36,-80.976,90.007,35.719,0,336
14690,1.036,0.168,0,0,2.09,6.05,-81.703,96.177,35.719,0,352
14711,1.016,0.148,0,9.25,-0.56,5.63,-82.178,93.277,35.525,0,365
14732,1.024,0.172,-0.016,3.97,1.39,4.24,-80.431,95.322,35.586,0,377
14752,1.024,0.16,-0.008,1.53,2.5,4.8,-81.114,92.869,35.428,0,383
14774,1.016,0.152,-0.02,3.41,2.5,4.73,-81.425,97.503,35.344,0,386
14794,1.028,0.168,-0.004,0.63,3.13,3.83,-80.722,91.371,35.489,0,372
14816,1.024,0.156,-0.012,0.42,3.62,3.69,-81.319,94.406,35.489,0,363
14836,1.024,0.144,-0.02,2.37,3.62,3.62,-81.344,90.007,35.489,0,350
14857,1.032,0.16,0.004,0.14,5.08,3.55,-81.341,97.313,35.489,0,325
14878,1.024,0.152,-0.02,-0.21,3.55,3.9,-81.958,93.187,35.489,0,317
14899,1.024,0.144,-0.012,1.04,2.37,2.57,-81.974,94.771,35.494,0,329
14920,1.024,0.148,-0.012,-0.49,2.5,3.76,-81.755,94.642,35.287,0,332
14941,1.028,0.14,-0.008,-0.9,3.27,4.1,-82.238,93.277,35.393,0,332
14961,1.028,0.144,0,-0.83,3.55,3.97,-82.032,90.007,35.565,0,329
14983,1.028,0.148,-0.004,-1.25,4.03,3.76,-81.811,91.555,35.269,0,311
15003,1.028,0.152,-0.004,-1.25,3.69,3.62,-81.592,91.514,35.269,0,305
15025,1.028,0.156,-0.012,-1.81,3.69,3.34,-81.399,92.943,35.269,0,313
15045,1.028,0.152,-0.004,-1.95,3.62,2.64,-81.159,90.007,35.269,0,318
15066,1.028,0.156,-0.004,-1.88,3.76,2.92,-81.595,90.007,35.269,0,312
15087,1.024,0.14,0.004,-2.71,4.31,3.27,-82.218,88.37,35.225,0,332
15108,1.028,0.136,0.004,-3.2,3.9,3.76,-82.467,88.322,35.256,0,337
15129,1.024,0.136,0,-2.43,3.62,3.2,-82.441,90.007,35.212,0,475
15150,1.02,0.14,0,-3.55,2.99,2.85,-82.191,90.007,35.141,0,85
15170,1.02,0.148,0.02,-7.51,1.32,3.83,-81.676,82.31,34.973,0,317
15191,1.016,0.12,-0.052,1.18,0.9,2.64,-82.461,98.623,35.031,0,331
15212,1.016,0.132,0.012,-2.3,1.95,1.04,-82.223,85.107,35.031,0,332
15233,1.036,0.148,0.02,-5.63,1.95,1.81,-81.829,83.836,35.031,0,338
15254,1.032,0.132,0.008,3.69,-1.32,2.02,-82.704,86.538,35.031,0,349
15275,1.028,0.148,0.004,0.83,0.21,0.28,-81.811,88.458,35.066,0,377
15296,1.024,0.148,0.004,-2.37,1.25,0.63,-81.779,88.458,35.3,1,386
15316,1.016,0.144,0.008,0.28,0.56,0.7,-81.927,86.827,35.521,1,395
15337,1.02,0.148,0.004,-2.02,1.11,0.77,-81.747,88.458,35.145,1,403
15358,1.028,0.148,0.008,-1.74,0.97,-0.28,-81.998,88.415,35.229,1,386
15379,1.024,0.144,-0.004,0.35,1.25,0.21,-81.811,88.458,35.098,1,372
15400,1.024,0.152,0.012,-0.7,1.18,0.35,-81.592,91.514,35.098,1,339
15421,1.012,0.156,0,-1.11,-1.39,-0.56,-81.243,90.007,35.098,1,321
15441,1.028,0.156,-0.004,-1.32,-2.43,-0.42,-81.374,91.476,35.098,1,315
15463,1.028,0.152,0.004,-2.37,-1.95,-0.7,-81.592,88.499,35.098,1,332
15483,1.032,0.148,-0.004,-0.49,-1.88,-0.9,-81.842,91.555,35.53,1,334
15505,1.028,0.144,0.004,-2.57,-1.11,0.21,-82.029,88.415,35.406,1,331
15525,1.024,0.148,0,-3.76,0.14,1.6,-82.218,88.37,35.694,1,333
15546,1.036,0.144,0.016,-1.74,0.9,0.77,-81.418,85.608,35.547,1,313
15567,1.028,0.164,0.004,-2.3,1.11,0.83,-81.407,91.476,35.535,1,305
15588,1.028,0.152,0,-0.77,-0.07,0.35,-81.595,90.007,35.535,1,324
15608,1.024,0.164,-0.004,-1.25,-0.07,-0.21,-80.904,91.404,35.535,1,311
15630,1.028,0.16,-0.004,-2.37,-0.07,-0.56,-81.157,91.439,35.535,1,310
15650,1.02,0.152,-0.012,-1.6,1.04,-0.35,-81.504,94.521,35.535,1,328
15672,1.02,0.148,-0.004,-0.97,1.67,0.42,-81.747,91.555,35.79,1,440
15692,1.028,0.164,-0.004,-4.38,3.76,-0.42,-80.939,91.404,35.72,1,169
15714,1.012,0.164,0,-5.98,2.64,0.07,-81.139,79.83,35.804,1,276
15734,1.02,0.152,0,-0.21,1.32,-1.53,-81.011,105.759,35.791,1,344
15755,1.024,0.152,0,0.63,2.3,-1.04,-81.563,90.007,35.676,1,345
15776,1.028,0.176,0.004,-7.51,4.24,-0.21,-80.288,88.705,35.676,1,349
15797,1.024,0.16,0.004,-0.14,1.81,-0.07,-81.123,88.574,35.676,1,352
15817,1.024,0.16,0,3.06,2.23,-0.97,-81.125,90.007,35.676,1,356
15839,1.032,0.176,0.004,-1.6,2.85,-1.04,-80.325,88.705,35.676,1,376
15859,1.024,0.164,0.012,0.14,1.32,-0.97,-80.883,85.821,35.963,1,394
15881,1.012,0.16,0,0.77,-0.77,0.56,-80.614,88.643,36.159,1,403
15901,1.016,0.164,-0.004,-1.81,-2.43,0.07,-80.138,91.309,36.252,1,402
15922,1.02,0.164,0.004,0.07,-1.11,-0.21,-80.686,91.371,36.253,1,385
15943,1.024,0.176,0.008,0.77,-1.46,-0.21,-80.244,87.404,36.2,1,346
15964,1.024,0.18,-0.008,-0.49,-0.7,0.21,-80.027,92.552,36.2,1,318
15985,1.04,0.168,0.004,-0.21,0.42,1.88,-80.827,88.643,36.2,1,309
16006,1.024,0.176,-0.004,-0.97,0,0.63,-80.251,91.309,36.2,1,310
16026,1.024,0.172,0,-0.28,-0.14,0.42,-80.471,90.007,36.2,1,320
16048,1.028,0.168,-0.008,-0.21,1.18,2.23,-80.461,92.67,36.455,1,331
16068,1.016,0.172,-0.004,0.97,0.56,1.04,-80.251,91.309,36.474,1,325
16089,1.024,0.18,-0.008,0,0.56,1.53,-80.253,90.007,36.375,1,322
16110,1.02,0.176,-0.012,-0.49,1.39,1.32,-80.194,93.907,36.57,1,310
16131,1.024,0.18,-0.008,0.56,0.49,0.83,-80.027,92.552,36.631,1,313
16151,1.024,0.176,-0.008,-0.28,0.42,0.07,-80.244,92.609,36.631,1,308
16173,1.024,0.176,-0.008,0.35,0.77,1.04,-80.244,92.609,36.631,1,308
16193,1.024,0.184,-0.004,-0.77,1.46,1.53,-79.817,91.252,36.631,1,311
16215,1.02,0.188,-0.012,-1.32,1.6,1.6,-79.731,92.496,36.631,1,404
16235,1.024,0.184,-0.012,-2.09,1.95,2.43,-79.976,93.821,36.537,1,212
16256,1.016,0.18,-0.004,-3.48,0.9,2.64,-80.461,87.343,36.564,1,252
16277,1.016,0.172,-0.028,-1.18,-1.53,2.3,-80.273,99.253,36.833,1,342
16297,1.016,0.172,-0.048,-2.43,1.67,2.09,-80.037,105.601,36.664,1,357
16319,1.016,0.2,0.012,-8.49,1.18,2.71,-78.85,86.573,36.474,1,344
16339,1.028,0.18,-0.028,-1.88,-0.9,2.23,-79.957,98.849,36.474,1,347
16361,1.028,0.192,-0.004,-0.63,0.42,2.57,-79.424,91.2,36.474,1,348
16381,1.02,0.188,-0.012,-3.06,0.56,2.37,-79.6,88.788,36.474,1,357
16402,1.02,0.184,0,-2.64,0.9,2.43,-79.81,92.496,36.474,1,370
16423,1.012,0.192,-0.016,-5.22,0.56,3.83,-79.731,92.496,36.502,1,387
16444,1.012,0.176,-0.004,-5.15,-0.35,3.41,-80.138,91.309,36.357,1,397
16465,1.012,0.172,-0.012,-3.55,-1.46,2.5,-80.337,93.998,36.187,1,374
16486,1.008,0.18,0,-4.31,-2.23,4.31,-79.881,90.007,36.485,1,346
16506,1.008,0.188,-0.02,-4.52,-3.41,5.7,-79.383,96.08,36.258,1,306
16528,1.012,0.204,-0.004,-5.29,-4.38,6.26,-78.607,91.13,36.258,1,296
16548,1.024,0.212,-0.008,-5.01,-5.15,6.19,-78.301,92.168,36.258,1,297
16570,1.028,0.212,-0.016,-6.4,-5.63,6.68,-78.549,93.309,36.258,1,295
16590,1.028,0.204,-0.008,-5.5,-5.7,6.96,-79.15,93.51,36.258,1,304
16611,1.024,0.204,-0.016,-6.89,-5.01,8.28,-78.619,94.492,36.224,1,317
16632,1.012,0.192,-0.024,-7.51,-5.57,8.49,-79.182,97.132,35.911,1,326
16653,1.028,0.2,-0.04,-8.14,-5.91,9.74,-78.784,101.317,35.614,1,322
16674,1.02,0.188,-0.02,-8.49,-6.4,9.88,-79.505,96.08,35.415,1,329
16695,1.02,0.184,-0.032,-7.44,-7.65,9.04,-79.63,99.873,35.124,1,306
16715,1.024,0.184,-0.04,-9.74,-6.96,10.23,-79.586,102.272,35.133,1,304
16737,1.024,0.184,-0.036,-8.9,-7.03,10.02,-80.221,103.099,35.133,1,346
16758,1.024,0.172,-0.04,-8.56,-7.1,9.46,-80.245,104.357,35.133,1,365
16779,1.028,0.172,-0.032,-8.21,-5.98,8.9,-80.348,100.547,35.133,1,150
16799,1.024,0.156,-0.056,-8.35,-8.21,8.28,-80.812,109.755,35.168,1,360
16821,1.024,0.152,-0.044,-7.44,-6.05,8.9,-81.221,106.152,34.329,1,362
16841,1.016,0.164,-0.064,-16,-4.87,9.25,-80.176,111.326,34.322,1,365
16863,1.028,0.136,-0.052,-9.88,-8.07,8.97,-81.944,110.933,34.086,1,361
16883,1.036,0.144,-0.036,-3.83,-7.93,8.56,-81.379,104.751,33.97,1,352
16905,1.036,0.156,-0.064,-7.44,-5.43,8.28,-80.49,111.81,33.922,1,350
16925,1.032,0.152,-0.048,-8.63,-4.73,9.88,-80.577,107.6,33.922,1,360
16947,1.028,0.168,-0.064,-11.13,-3.97,10.92,-80.086,110.863,33.922,1,364
16967,1.028,0.156,-0.068,-10.57,-5.29,9.74,-80.606,113.561,33.922,1,369
16989,1.024,0.136,-0.06,-9.81,-5.98,9.04,-81.746,113.814,33.839,1,382
17009,1.024,0.144,-0.08,-13.15,-5.29,10.23,-80.867,119.063,32.921,1,357
17031,1.028,0.14,-0.084,-12.66,-5.29,10.02,-80.982,120.973,32.701,1,343
17052,1.02,0.136,-0.092,-13.77,-6.47,10.64,-80.936,117.833,32.414,1,336
17073,1.028,0.144,-0.08,-13.57,-6.75,9.67,-81.313,120.474,32.228,1,325
17094,1.028,0.14,-0.084,-13.98,-8,10.16,-80.982,120.973,32.078,1,318
17115,1.028,0.124,-0.076,-13.36,-8.28,10.02,-81.954,121.513,32.078,1,316
17136,1.02,0.128,-0.096,-13.5,-8.21,11.62,-81.091,126.879,32.078,1,315
17157,1.02,0.132,-0.092,-12.59,-8.77,12.8,-81.042,124.885,32.078,1,316
17178,1.004,0.136,-0.1,-11.41,-9.67,13.22,-80.462,126.336,32.044,1,332
17199,1.008,0.128,-0.112,-9.39,-12.03,13.91,-79.989,130.472,30.929,1,330
17220,1.016,0.132,-0.116,-5.22,-12.8,15.23,-79.923,131.433,30.583,1,329
17242,1.024,0.132,-0.128,-4.03,-13.7,16,-79.826,134.128,30.307,1,328
17262,1.032,0.116,-0.128,-1.53,-13.15,16.77,-80.504,137.826,30.113,1,358
17284,1.04,0.108,-0.132,1.74,-12.66,17.74,-80.693,140.721,29.975,0,271
17304,1.048,0.108,-0.136,3.34,-10.71,19.34,-80.597,141.557,29.975,0,185
17326,1.048,0.104,-0.156,6.75,-11.83,20.1,-79.863,146.321,29.975,0,326
17346,1.044,0.092,-0.132,9.74,-10.92,21.43,-80.09,149.481,29.975,0,332
17368,1.024,0.088,-0.152,4.03,-10.3,23.86,-80.453,158.21,29.975,0,360
17388,1.028,0.044,-0.152,13.7,-15.17,24,-81.737,163.021,28.37,0,374
17410,1.04,0.04,-0.144,17.6,-12.1,23.3,-81.828,164.488,27.899,0,380
17431,1.024,0.012,-0.164,11.83,-8.49,22.4,-80.883,175.828,27.739,0,396
17452,1.02,-0.008,-0.144,11.48,-5.77,21.77,-81.958,-176.833,27.192,0,391
17473,1.02,-0.032,-0.2,9.11,-3.83,21.91,-78.775,-170.922,27.129,0,385
17494,1.036,-0.064,-0.204,7.44,-2.92,19.69,-78.663,-158.818,27.129,0,375
17515,1.08,-0.084,-0.188,5.98,-2.23,19.27,-79.534,-153.958,27.129,0,361
17536,1.076,-0.076,-0.16,5.15,-1.46,21.5,-82.242,-154.145,27.129,0,341
17557,1.068,-0.064,-0.168,5.22,1.53,18.99,-80.451,-159.157,27.129,0,334
17579,1.06,-0.06,-0.14,1.95,5.15,17.32,-81.829,-156.813,25.665,0,290
17599,1.06,-0.084,-0.16,2.57,6.75,15.72,-80.331,-152.312,25.393,0,282
17620,1.04,-0.08,-0.132,4.73,5.91,16.97,-81.564,-148.793,24.858,0,321
17641,1.032,-0.076,-0.132,3.62,8.35,13.36,-81.344,-157.392,25.159,0,337
17662,1.028,-0.072,-0.16,2.37,10.43,19.41,-79.59,-155.068,25.055,0,338
17683,1.032,-0.076,-0.176,1.88,8.14,9.18,-80.114,-151.71,25.055,0,323
17704,1.024,-0.072,-0.14,-2.43,6.26,10.3,-81.266,-152.795,25.055,0,334
17725,1.016,-0.08,-0.144,-0.14,5.7,9.04,-80.796,-150.957,25.055,0,309
17746,0.992,-0.096,-0.14,12.52,-0.35,5.91,-80.295,-145.572,25.055,0,314
17767,1.012,-0.092,-0.18,-1.04,4.31,8.7,-78.71,-152.939,24.087,0,330
17788,1.032,-0.088,-0.152,-3.69,1.88,4.38,-80.347,-149.942,24.146,0,362
17809,1.02,-0.12,-0.156,-0.83,2.09,6.68,-79.895,-151.2,24.149,0,110
17830,1.028,-0.068,-0.148,-7.58,4.03,12.24,-80.883,-152.83,23.975,0,247
17851,0.996,-0.084,-0.176,-1.25,0,6.26,-79.199,-159.316,24.042,0,272
17872,1.044,-0.068,-0.204,3.06,0.56,5.01,-78.367,-161.577,24.042,0,287
17893,1.048,-0.048,-0.172,-3.13,-0.28,1.81,-80.336,-164.419,24.042,0,308
17914,1.068,-0.028,-0.14,-5.15,-0.9,0.35,-82.392,-168.703,24.042,0,329
17935,1.048,-0.06,-0.136,6.54,-1.25,-0.07,-81.933,-156.206,24.042,0,346
17956,1.028,-0.044,-0.16,9.53,-3.97,-0.63,-81.181,-164.261,23.849,0,380
17977,1.068,-0.032,-0.152,1.11,0.56,-0.28,-81.956,-176.919,23.829,0,395
17998,1.048,-0.02,-0.136,1.18,1.18,4.87,-81.945,-165.976,23.856,0,403
18019,1.044,-0.052,-0.148,3.62,0.97,1.95,-81.461,-160.653,23.997,0,394
18039,1.052,-0.036,-0.168,-12.73,8,5.91,-80.73,-167.918,23.965,0,371
18061,1.024,-0.096,-0.144,2.43,3.76,9.39,-80.413,-146.321,23.965,0,348
18082,1.032,-0.06,-0.192,-7.51,6.68,9.11,-78.976,-162.658,23.965,0,338
18103,1.032,-0.056,-0.148,-7.79,5.57,9.88,-81.289,-159.286,23.965,0,343
18124,1.04,-0.096,-0.172,-10.92,5.43,10.37,-78.801,-149.432,23.965,0,356
18145,1.02,-0.108,-0.16,-9.67,3.27,10.92,-79.55,-146.321,23.752,0,374
18166,1.028,-0.1,-0.164,-14.68,6.4,13.22,-78.914,-147.886,23.356,0,371
18187,1.032,-0.124,-0.152,-10.71,4.8,13.77,-79.243,-140.803,23.276,0,368
18208,1.028,-0.136,-0.14,-8.56,5.22,9.81,-79.255,-135.84,23.023,0,373
18229,1.048,-0.112,-0.156,-11.27,9.04,13.29,-79.622,-144.334,22.762,0,363
18250,1.032,-0.136,-0.152,-8.35,8.07,12.87,-78.826,-138.19,22.762,0,370
18271,1.02,-0.124,-0.148,-9.46,8.28,8.49,-79.209,-142.442,22.762,0,347
18292,1.032,-0.112,-0.176,-8.42,7.17,6.26,-78.534,-147.54,22.762,0,365
18313,1.02,-0.096,-0.168,-6.12,5.7,9.53,-79.226,-147.63,22.762,0,400
18334,1.032,-0.104,-0.16,-0.56,3.48,7.23,-79.529,-146.987,22.213,0,316
18355,1.032,-0.108,-0.144,3.2,2.37,6.96,-80.112,-143.141,21.77,0,176
18376,1.044,-0.08,-0.168,0.63,1.46,5.29,-79.9,-154.548,21.759,0,313
18397,1.032,-0.096,-0.14,8.14,-0.9,2.43,-80.665,-145.572,21.849,0,311
18418,1.032,-0.096,-0.128,1.32,2.92,4.59,-81.193,-143.141,21.98,0,296
18439,1.028,-0.12,-0.132,2.57,1.81,9.11,-79.616,-131.541,21.98,0,323
18460,0.996,-0.148,-0.112,5.7,0.42,6.19,-79.246,-130.742,21.98,0,345
18481,1.004,-0.132,-0.14,-3.06,6.89,9.39,-80.059,-134.071,21.98,0,356
18502,0.988,-0.14,-0.14,-3.62,9.18,8.83,-78.674,-135.01,21.98,0,389
18523,0.992,-0.164,-0.196,-1.32,9.04,8.49,-75.559,-140.09,21.696,0,383
18544,1.012,-0.184,-0.188,0.7,7.93,7.72,-75.435,-135.626,21.544,0,396
18565,1.044,-0.164,-0.156,-4.8,10.43,12.52,-77.773,-133.578,21.372,0,371
18586,1.044,-0.176,-0.14,-1.74,11.27,8.7,-77.849,-128.51,21.2,0,352
18607,1.056,-0.144,-0.108,-3.41,12.24,6.68,-79.409,-131.739,21.075,0,335
18628,1.048,-0.152,-0.136,5.01,8.14,4.17,-79.549,-127.359,21.075,0,333
18649,1.064,-0.132,-0.128,-2.16,10.5,4.17,-80.201,-134.128,21.075,0,332
18670,1.068,-0.144,-0.12,-0.56,10.64,1.04,-80.051,-129.815,21.075,0,333
18691,1.024,-0.112,-0.076,-3.97,11.06,1.18,-82.476,-124.169,21.075,0,349
18712,1.044,-0.12,-0.112,-6.54,14.05,-2.78,-81.071,-133.035,20.841,0,348
18733,1.024,-0.132,-0.112,-6.05,13.84,-3.9,-80.41,-130.324,20.78,0,359
18754,1,-0.108,-0.108,-8.9,14.05,-5.98,-82.163,-138.514,20.88,0,344
18775,0.996,-0.084,-0.088,-11.34,12.17,-7.03,-83.294,-130.825,21.05,0,349
18796,0.988,-0.104,-0.068,-9.95,9.39,-4.17,-82.017,-124.601,21.095,0,320
18817,1,-0.132,-0.096,-15.58,10.3,-1.46,-80.736,-126.037,21.095,0,322
18838,1.02,-0.144,-0.08,-19.27,10.16,-2.3,-80.832,-119.063,21.095,0,331
18859,0.992,-0.164,-0.052,-19.48,7.58,-4.03,-80.167,-107.6,21.095,0,461
18880,0.98,-0.164,-0.072,-22.47,8.97,-3.97,-79.649,-113.711,21.095,0,128
18900,1.02,-0.164,-0.08,-28.52,8.63,-4.66,-78.505,-123.398,21.304,0,380
18922,1.032,-0.196,-0.148,-20.38,4.31,-5.29,-77.805,-120.265,21.433,0,362
18942,1.032,-0.188,-0.104,-17.46,4.87,-2.64,-80.83,-116.574,21.363,0,360
18964,1.08,-0.104,-0.092,-22.75,4.52,-1.11,-82.68,-131.506,21.417,0,353
18985,1.048,-0.1,-0.064,-10.5,-1.74,-2.99,-83.543,-122.628,21.405,0,348
19006,1.04,-0.1,-0.096,-1.11,-3.34,-4.24,-82.414,-133.841,21.405,0,327
19027,1.024,-0.092,-0.084,-1.95,-5.7,-5.7,-83.07,-132.407,21.405,0,348
19048,1.016,-0.128,-0.116,1.88,-6.19,-9.81,-80.357,-132.194,21.405,0,356
19069,0.992,-0.152,-0.128,3.06,-6.05,-8.9,-77.803,-128.167,21.405,0,364
19090,0.996,-0.184,-0.128,4.38,-6.33,-7.79,-76.648,-122.628,21.45,0,371
19110,1,-0.212,-0.14,8.35,-5.57,-3.97,-75.527,-128.117,21.792,0,344
19132,1.024,-0.192,-0.124,9.95,-2.99,-3.34,-77.423,-122.865,22.012,0,325
19152,1.048,-0.172,-0.132,8.97,0.7,-6.68,-78.317,-127.514,22.051,0,321
19174,1.036,-0.168,-0.088,10.78,3.13,-7.72,-79.632,-117.655,22.337,0,305
19194,1.072,-0.188,-0.092,13.08,7.79,-11.69,-78.958,-116.084,22.337,0,306
19216,1.076,-0.144,-0.092,14.19,9.39,-15.72,-82.368,-125.919,22.337,0,314
19237,1.06,-0.084,-0.08,11.83,13.08,-15.58,-84.195,-135.01,22.337,0,321
19258,1.06,-0.064,-0.084,15.23,16,-17.95,-84.498,-149.432,22.337,0,294
19279,1.052,-0.028,-0.096,14.82,18.3,-22.68,-84.576,-163.752,23.134,0,358
19300,1.036,-0.02,-0.108,14.12,20.59,-25.88,-83.954,-169.521,24.378,0,348
19321,1.04,-0.02,-0.096,17.67,18.78,-24,-84.62,-168.244,24.836,0,347
19343,1.028,-0.028,-0.096,23.86,15.72,-24.49,-84.45,-163.752,25.556,0,341
19363,1.032,0.012,-0.1,22.89,15.17,-21.63,-84.683,163.085,26.098,0,320
19385,1.04,0.04,-0.084,22.33,13.15,-20.87,-84.6,148.251,26.098,0,322
19406,1.036,0.072,-0.072,23.51,8.63,-23.1,-84.35,120.588,26.098,0,422
19427,1.016,0.14,-0.032,17.39,7.3,-24.14,-81.961,102.883,26.098,0,56
19448,1.004,0.148,0.012,17.53,5.43,-26.16,-81.593,85.371,26.098,0,286
19469,0.96,0.128,-0.064,22.33,3.34,-31.1,-81.527,116.574,27.301,0,278
19490,0.976,0.104,-0.048,19.34,6.89,-34.09,-83.313,114.784,29.283,0,293
19511,0.996,0.108,-0.052,18.85,4.03,-32.28,-83.623,111.046,30.204,0,299
19532,1.004,0.108,-0.012,27.2,1.32,-29.08,-84.257,94.406,30.893,0,323
19553,1.06,0.12,-0.012,23.03,6.4,-28.17,-82.436,91.598,31.441,0,335
19574,1.096,0.148,0.02,15.51,9.39,-24,-82.247,82.31,31.441,0,360
19595,1.068,0.152,0.016,16.35,11.2,-21.57,-81.862,83.997,31.441,0,371
19616,1.052,0.172,0.02,16,11.41,-19.97,-80.659,83.374,31.441,0,368
19637,1.028,0.2,0.02,16.28,11.62,-19.2,-78.943,84.296,31.441,0,351
19658,1.012,0.2,0.012,18.5,12.31,-20.45,-78.807,86.573,32.365,0,376
19680,1,0.208,0.004,19.62,12.03,-18.71,-77.622,84.716,34.669,0,373
19700,1.004,0.22,-0.008,18.92,13.43,-17.53,-77.362,93.073,35.174,0,368
19722,1,0.224,0.012,19.55,11.2,-15.44,-77.362,86.94,35.61,0,377
19742,1.012,0.24,0.004,18.3,11.55,-13.43,-76.662,89.052,36.114,0,341
19764,1.016,0.248,0.004,15.37,12.1,-11.55,-76.287,89.083,36.114,0,330
19784,1.02,0.256,0.004,14.26,12.73,-10.85,-75.915,89.111,36.114,0,336
19806,1.02,0.256,0.016,14.82,13.7,-8.9,-75.89,86.43,36.114,0,336
19826,1.02,0.264,0.024,13.98,14.12,-7.72,-75.189,85.738,36.114,0,333
19848,1.004,0.272,0.016,13.01,13.84,-8.07,-74.848,84.964,36.656,0,346
19868,0.996,0.268,0.016,13.36,13.36,-8.21,-74.833,87.48,38.073,0,355
19890,1,0.264,0.032,12.45,12.66,-7.86,-75.113,83.095,38.447,0,330
19910,0.996,0.264,0.02,11.55,12.24,-5.98,-75.119,85.674,38.729,0,335
19932,0.992,0.276,0.02,11.83,11.27,-3.9,-74.419,85.862,39.04,0,315
19952,0.992,0.272,0.012,11.9,10.78,-3.69,-74.658,87.48,39.054,0,472
19974,0.992,0.284,0.016,10.43,9.95,-3.13,-74.006,86.782,39.054,0,162
19994,1.004,0.296,0.04,3.69,8.21,-0.28,-73.922,78.851,39.054,0,288
20016,0.992,0.248,-0.008,13.98,6.33,-1.53,-75.247,95.363,39.054,1,342
20036,0.988,0.268,0.028,9.32,7.44,-0.97,-74.75,84.042,39.091,1,364
20057,0.992,0.26,0.024,8.77,8.21,-0.63,-75.259,84.732,40.086,1,372
20078,0.992,0.272,0.032,13.08,7.65,1.18,-74.571,83.296,40.201,1,370
20099,1.004,0.276,0.024,10.02,8.83,-0.83,-74.579,85.037,40.591,1,370
20120,1.008,0.288,0.044,8.35,9.11,1.04,-73.885,81.32,40.365,1,370
20141,0.996,0.288,0.036,7.03,8.21,1.46,-73.759,82.881,40.407,1,373
20161,0.996,0.28,0.032,6.4,6.82,2.57,-74.03,82.782,40.407,1,375
20183,1,0.292,0.032,2.99,7.23,2.57,-73.438,82.31,40.407,1,368
20203,1,0.288,0.04,3.41,6.75,1.81,-73.554,81.437,40.407,1,358
20225,0.984,0.288,0.044,2.43,6.12,2.16,-73.513,81.32,40.449,1,354
20245,0.992,0.28,0.036,2.43,6.4,2.57,-74.12,82.68,40.893,1,350
20265,0.988,0.288,0.044,0.7,3.41,3.48,-73.576,81.32,40.84,1,345
20287,0.996,0.28,0.048,0.35,2.64,2.78,-74.086,80.278,41.11,1,341
20307,1,0.292,0.056,-2.23,1.88,4.24,-73.447,79.149,40.944,1,329
20329,1.012,0.272,0.056,-0.42,1.25,3.83,-74.086,77.911,41.037,1,316
20349,0.996,0.276,0.048,-0.63,2.23,4.03,-74.45,80.948,41.037,1,307
20370,1,0.276,0.044,-1.04,1.81,3.9,-74.717,80.817,41.037,1,305
20391,1,0.268,0.044,-1.18,1.39,4.17,-74.811,80.682,41.037,1,304
20412,0.992,0.268,0.048,0.07,0.21,3.9,-74.658,79.852,41.037,1,326
20433,0.996,0.268,0.052,0.07,-0.28,4.45,-74.677,79.025,40.862,1,334
20454,0.996,0.268,0.052,0.21,0.07,4.87,-74.677,79.025,40.647,1,326
20474,0.996,0.26,0.048,1.32,-0.49,4.59,-75.139,79.546,40.757,1,329
20496,1,0.264,0.04,0.42,-0.9,4.66,-74.926,80.682,40.83,1,329
20516,1.004,0.268,0.036,0.83,-1.25,5.08,-74.775,79.852,40.641,1,457
20537,0.996,0.268,0.044,-0.7,-1.67,5.5,-74.707,77.386,40.641,1,131
20558,1.004,0.268,0.056,0.14,-4.73,5.43,-74.752,78.203,40.641,1,335
20579,0.984,0.268,0.028,1.88,-4.31,5.22,-74.691,84.042,40.641,1,334
20600,0.996,0.256,0.02,-4.1,-1.6,4.87,-75.549,85.539,40.641,1,361
20621,1.004,0.248,0.036,-0.21,-2.99,5.57,-75.991,81.747,40.484,1,370
20642,1,0.252,0.048,5.29,-4.87,5.15,-75.618,79.222,40.47,1,378
20663,1.008,0.272,0.016,1.88,-2.16,4.31,-74.989,82.355,40.318,1,373
20683,1.004,0.26,0.052,1.67,-2.92,4.59,-75.169,77.851,40.243,1,378
20705,1.004,0.256,0.032,2.16,-3.2,5.43,-74.843,83.197,40.297,1,366
20725,1.004,0.272,0.024,1.11,-2.71,5.63,-74.791,84.964,40.297,1,359
20747,1.004,0.268,0.036,0.49,-1.88,4.31,-74.932,82.355,40.297,1,350
20767,0.996,0.252,0.036,2.71,-1.95,3.62,-75.669,81.876,40.297,1,347
20788,1,0.256,0.052,1.32,-2.57,3.69,-75.365,78.524,40.297,1,343
20809,1,0.248,0.012,1.88,-2.78,4.1,-76.062,87.236,40.043,1,331
20830,0.996,0.26,0.044,0.63,-3.27,3.69,-75.294,83.86,39.974,1,335
20851,0.992,0.26,0.012,1.25,-3.76,3.27,-75.191,86.538,40.019,1,330
20872,1.008,0.256,0.02,-0.49,-3.97,3.2,-75.886,81.876,39.899,1,322
20892,1.008,0.252,0.028,1.04,-3.55,3.06,-75.886,83.666,40.025,1,306
20914,1.008,0.256,0.016,0.77,-2.5,3.06,-75.729,86.43,40.025,1,303
20934,1.008,0.256,0.02,0.7,-2.09,3.9,-75.714,85.539,40.025,1,298
20956,1.004,0.252,0.016,1.46,-1.88,3.83,-75.888,86.373,40.025,1,295
20976,1,0.256,0.016,-0.35,-1.88,4.45,-75.619,86.43,40.025,1,318
20997,1.004,0.252,0.016,0.97,-2.85,3.2,-75.725,86.373,39.637,1,323
21018,1.004,0.256,0.016,1.11,-2.37,3.83,-75.516,86.485,39.842,1,325
21039,1.008,0.256,0.012,0.97,-1.46,4.17,-75.729,86.43,39.609,1,327
21060,1.016,0.256,0.012,1.04,-1.11,3.2,-75.848,87.323,39.648,1,371
21081,1.012,0.252,0.016,1.53,-1.25,3.69,-75.996,86.373,39.404,1,318
21101,1.016,0.256,0.028,0,-0.83,4.45,-75.782,83.764,39.404,1,157
21123,1.016,0.252,0.004,4.87,-4.31,3.41,-76.074,89.097,39.404,1,330
21143,1.004,0.256,0.004,1.46,-2.85,3.76,-75.699,89.111,39.404,1,335
21165,1.004,0.26,0.016,-5.43,-0.28,4.59,-75.461,86.485,39.404,1,346
21185,1.004,0.232,0,5.7,-3.13,3.48,-76.597,87.144,39.663,1,362
21206,1.016,0.252,0.02,5.77,-0.28,2.5,-76.126,90.916,39.312,1,370
21227,1.008,0.244,0.016,3.76,0.35,2.99,-76.37,86.255,39.32,1,380
21248,1.008,0.248,0,3.2,0.63,3.06,-76.184,90.007,39.459,1,387
21268,1.004,0.256,0.004,0.42,-0.14,5.22,-75.699,89.111,39.658,1,364
21289,1.012,0.256,0.008,1.11,-1.25,4.38,-75.803,88.217,39.658,1,359
21310,1.016,0.252,0.008,1.67,-1.39,3.69,-76.069,88.188,39.658,1,349
21331,1.016,0.248,-0.004,0.42,-0.35,4.1,-76.287,90.931,39.658,1,332
21352,1.016,0.256,0.02,-1.39,0.49,4.52,-76.597,92.869,39.658,1,321
21372,1,0.24,-0.02,-0.28,-0.49,4.24,-76.292,90.946,39.381,1,333
21394,1.012,0.24,0.004,-0.49,-0.7,3.62,-76.662,89.052,39.293,1,336
21414,1.012,0.232,-0.004,-0.63,-1.32,4.66,-77.092,90.994,39.281,1,333
21436,1.016,0.24,0,-0.63,-1.88,5.29,-76.715,90.007,39.25,1,341
21456,1.02,0.236,0,-1.18,-0.49,6.19,-76.978,90.007,39.171,1,321
21477,1.008,0.24,0,-1.11,-1.81,6.05,-76.613,90.007,39.171,1,313
21497,1.016,0.24,0,-1.74,-1.95,5.98,-76.715,90.007,39.171,1,313
21519,1.012,0.236,-0.004,0.07,-3.13,5.57,-76.927,90.978,39.171,1,315
21539,1.02,0.236,-0.004,-0.42,-2.92,5.91,-77.356,91.012,39.171,1,316
21561,1.012,0.232,-0.008,-0.83,-2.71,5.63,-77.475,91.03,39.15,1,324
21581,1.012,0.232,-0.016,0,-2.43,4.87,-77.064,93.952,38.885,1,325
21602,1.016,0.228,-0.016,-0.7,-1.81,5.43,-77.327,94.021,38.885,1,363
21623,1.016,0.224,-0.012,0.07,-2.3,5.15,-77.555,93.073,38.843,1,354
21644,1.024,0.236,0,-0.35,-1.88,4.52,-77.027,90.007,38.691,1,173
21664,1.02,0.232,-0.02,2.78,-4.45,4.1,-77.146,94.934,38.691,1,330
21686,1.016,0.24,-0.008,0.07,-4.03,3.34,-76.708,91.916,38.691,1,330
21706,1.02,0.232,-0.036,-5.63,-1.04,3.97,-77.477,95.109,38.691,1,334
21728,1.016,0.22,-0.02,2.92,-4.87,4.17,-77.359,95.02,38.691,1,343
21748,1.024,0.228,-0.008,5.15,-2.43,1.81,-77.223,95.913,38.741,1,356
21769,1.02,0.22,-0.02,3.27,-0.35,2.78,-77.786,95.201,38.4,1,372
21790,1.012,0.22,-0.04,2.92,-0.42,2.85,-77.546,100.312,38.557,1,373
21811,0.996,0.22,-0.044,1.53,-1.04,3.34,-77.311,101.317,38.428,1,381
21832,1.012,0.248,-0.032,1.32,-1.04,2.09,-76.126,97.36,38.491,1,363
21853,1.02,0.24,-0.02,4.1,-3.06,1.11,-76.721,94.771,38.498,1,341
21873,1.024,0.236,-0.024,2.43,-1.32,0.97,-76.939,96.773,38.498,1,317
21895,1.02,0.232,-0.008,0.42,-1.11,1.95,-77.407,95.02,38.498,1,311
21915,1.024,0.22,-0.052,1.67,-1.04,2.02,-76.921,100.746,38.498,1,312
21937,1.02,0.224,-0.008,1.6,-0.35,2.09,-77.612,92.052,38.498,1,332
21957,1.02,0.22,-0.04,1.11,0.07,2.02,-77.641,100.312,38.61,1,340
21978,1.02,0.224,-0.036,-0.07,1.67,2.78,-77.466,99.137,38.576,1,338
21999,1.008,0.228,-0.04,0.83,1.6,2.64,-77.072,99.958,38.448,1,346
22020,1.004,0.232,-0.04,0.49,2.37,2.78,-76.809,99.79,38.654,1,327
22041,1.012,0.236,-0.04,0.28,3.27,2.64,-76.809,99.79,38.639,1,316
22062,1.004,0.236,-0.052,-0.77,2.78,3.27,-76.253,101.317,38.639,1,319
22082,1,0.236,-0.048,0.07,2.92,2.99,-76.134,100.23,38.639,0,295
22104,1.004,0.244,-0.06,-0.28,2.85,3.76,-75.955,103.823,38.639,0,309
22124,1.012,0.228,-0.044,-0.49,3.48,3.62,-77.083,100.93,38.639,0,325
22146,1.016,0.224,-0.032,-0.14,3.27,3.55,-77.45,98.137,38.674,0,412
22166,1.024,0.224,-0.032,0.28,3.97,3.9,-77.545,98.137,38.504,0,213
22188,1.02,0.232,-0.02,-0.07,2.37,4.03,-77.146,94.934,38.449,0,312
22208,1.016,0.224,-0.044,5.43,2.16,3.34,-77.025,97.861,38.584,0,336
22228,1.016,0.248,-0.012,-4.24,4.45,4.31,-76.279,95.535,38.492,0,336
22250,1.004,0.244,-0.052,-3.13,2.78,5.57,-77.272,99.137,38.492,0,342
22270,1.032,0.24,-0.008,3.69,1.11,5.5,-76.907,91.916,38.492,0,346
22292,1.028,0.244,-0.036,1.25,4.38,3.97,-76.514,98.4,38.492,0,351
22312,1.016,0.24,-0.008,2.3,5.77,4.8,-76.708,91.916,38.492,0,375
22333,1.016,0.236,-0.032,0.77,6.96,5.98,-76.813,97.729,38.54,0,377
22354,1.016,0.228,-0.024,1.11,6.47,6.05,-77.29,96.016,38.491,0,374
22375,1.016,0.228,-0.012,1.39,6.05,5.98,-77.35,92.016,38.329,0,370
22396,1.02,0.22,-0.016,2.99,6.82,6.47,-77.666,95.109,38.421,0,344
22417,1.024,0.22,-0.016,0.63,9.11,6.75,-77.404,89.001,38.237,0,316
22437,1.016,0.22,-0.036,0.63,8.97,7.03,-77.63,99.301,38.237,0,313
22459,1.012,0.236,0.004,0.56,9.04,7.79,-76.877,89.036,38.237,0,318
22479,1.02,0.228,-0.02,1.25,8.77,6.89,-77.359,95.02,38.237,0,315
22501,1.004,0.224,0,0.83,9.04,7.86,-77.429,90.007,38.237,0,333
22521,1.016,0.22,0,0.77,10.43,8.35,-77.788,90.007,38.13,0,336
22542,1.008,0.216,0,0.14,11.9,8.77,-77.911,90.007,37.918,0,343
22562,1.008,0.216,-0.004,-0.21,12.73,8.97,-77.644,88.965,38.145,0,345
22584,1.004,0.224,0.008,-0.35,12.87,8.9,-76.942,89.019,37.96,0,334
22604,1.008,0.228,0.004,-0.63,12.59,8.83,-77.259,89.001,37.974,0,321
22626,1.008,0.224,0.016,-0.28,11.62,9.11,-77.446,85.921,37.974,0,310
22646,1.012,0.212,0.024,1.04,11.83,8.07,-78.101,83.547,37.974,0,312
22668,1.024,0.212,0.02,0.63,12.31,8.21,-78.259,84.617,37.974,0,325
22688,1.02,0.208,0.02,0,12.8,8.07,-78.428,84.514,37.974,0,385
22710,1.016,0.204,0.032,-0.14,13.29,8.21,-78.398,77.834,37.973,0,189
22730,1.008,0.2,0.048,1.25,9.11,7.44,-79.227,85.243,37.552,0,360
22751,1.012,0.188,0.012,2.85,8.97,7.51,-78.363,74.363,37.415,0,357
22772,1.016,0.204,0.028,-7.1,11.69,7.72,-78.549,82.191,37.528,0,358
22793,1.012,0.184,0.044,0.42,8.63,8.63,-79.417,76.557,37.436,0,351
22814,1.024,0.192,0.068,4.24,7.72,7.65,-78.756,70.503,37.436,0,350
22835,1.02,0.204,0.036,3.27,9.11,6.61,-78.526,79.998,37.436,0,356
22855,1.02,0.196,0.072,3.48,10.09,6.75,-78.437,69.834,37.436,0,364
22877,1.012,0.2,0.052,0.97,10.92,8.07,-79.535,75.074,37.436,0,377
22897,1.004,0.176,0.056,3.13,8.77,6.75,-79.095,71.945,37.256,0,386
22919,1.012,0.18,0.068,2.3,8.14,5.77,-79.193,70.826,37.178,0,369
22939,1.016,0.172,0.052,4.03,8.21,5.43,-79.976,73.184,37.268,0,351
22961,1.008,0.18,0.068,3.41,8.42,5.08,-79.199,69.31,37.134,0,340
22981,1.016,0.188,0.048,2.16,8.07,4.87,-79.194,75.683,37.265,0,325
23002,1.02,0.184,0.08,3.34,7.37,3.97,-78.878,66.506,37.265,0,321
23023,1.016,0.184,0.056,4.17,5.91,3.69,-79.286,73.078,37.265,0,320
23044,1.024,0.188,0.08,4.1,5.84,3.2,-78.722,66.954,37.265,0,322
23064,1.024,0.184,0.08,3.69,6.47,3.9,-79.364,67.756,37.265,0,324
23086,1.008,0.172,0.064,4.94,5.22,3.55,-79.64,65.664,37.241,0,341
23106,1.008,0.172,0.08,4.45,4.66,3.2,-79.078,67.114,37.209,0,345
23128,1.004,0.184,0.072,6.26,3.48,2.57,-78.872,68.634,37.425,0,352
23148,1.012,0.168,0.076,7.17,3.27,2.5,-79.68,65.664,37.377,0,349
23169,1.016,0.184,0.084,8.21,3.2,2.23,-78.746,65.467,37.56,0,323
23190,1.016,0.184,0.072,7.37,4.24,2.64,-79.001,68.634,37.56,0,324
23211,1.012,0.18,0.072,7.65,4.66,2.78,-79.161,68.204,37.56,0,358
23232,1.012,0.18,0.072,8.97,3.83,2.43,-79.232,65.561,37.56,0,335
23252,1.012,0.18,0.08,7.72,3.41,2.57,-78.426,63.44,37.56,0,174
23273,1.004,0.176,0.088,10.43,0.21,1.88,-80.017,75.656,37.567,0,361
23294,1,0.184,0.096,8.63,1.18,3.62,-78.281,62.452,37.619,0,366
23315,1.004,0.18,0.056,2.71,3.06,3.76,-79.372,72.724,37.661,0,368
23335,1.004,0.164,0.072,10.78,0.7,2.78,-79.891,66.302,37.935,0,375
23357,1.028,0.184,0.088,12.73,2.5,3.27,-78.784,64.445,37.778,0,358
23377,1.012,0.184,0.072,12.66,2.85,2.78,-78.958,68.634,37.807,0,368
23399,1.016,0.176,0.096,11.76,3.2,2.85,-78.878,66.506,37.807,0,374
23419,1.012,0.184,0.068,10.09,2.92,4.66,-78.831,70.12,37.807,0,379
23441,1.008,0.192,0.064,9.46,2.16,4.59,-78.711,69.049,37.807,0,377
23461,1.012,0.18,0.076,9.88,2.02,3.83,-79.078,67.114,37.785,0,375
23482,1.012,0.176,0.052,9.88,3.34,4.52,-79.727,73.545,37.994,0,358
23503,1.008,0.176,0.088,9.88,3.13,4.38,-78.96,63.44,38.159,0,350
23524,1.008,0.172,0.056,10.02,2.5,4.66,-79.832,71.971,38.03,0,344
23545,1.016,0.176,0.088,9.39,2.02,4.38,-79.045,63.44,37.987,0,321
23566,1.008,0.188,0.076,8.77,1.25,5.29,-78.316,68.811,38.045,0,316
23586,1.02,0.196,0.08,6.4,1.6,5.7,-78.561,68.41,38.045,0,317
23608,1.02,0.188,0.076,7.51,1.18,5.77,-78.549,65.929,38.045,0,313
23628,1.02,0.192,0.08,6.33,1.53,6.19,-78.48,67.385,38.045,0,312
23649,1.008,0.176,0.072,6.4,0.83,6.12,-79.323,67.756,38.045,0,323
23670,1.008,0.168,0.072,6.47,0.21,6.47,-79.728,66.806,37.916,0,343
23691,1.004,0.176,0.076,7.44,-0.83,6.4,-79.196,66.649,38.009,0,338
23712,1.016,0.176,0.072,5.08,0,6.61,-79.405,67.756,38.03,0,336
23733,1.016,0.176,0.068,6.33,-0.14,6.4,-79.244,68.204,37.98,0,325
23753,1.02,0.188,0.064,4.73,0.35,6.05,-79.043,68.634,37.894,0,383
23775,1.02,0.18,0.072,4.17,0.35,6.12,-79.32,66.649,37.894,0,255
23795,1.016,0.188,0.092,1.74,-1.04,6.47,-78.365,63.929,37.894,0,182
23817,1.016,0.164,0.032,6.68,-1.32,5.36,-80.667,78.965,37.894,0,317
23837,1.004,0.176,0.088,0.7,-0.28,6.89,-78.917,63.44,37.894,0,349
23858,1.012,0.164,0.064,-1.53,0,6.47,-80.138,68.687,37.767,0,359
23879,1.016,0.152,0.056,3.27,-0.56,6.68,-80.947,69.78,37.652,0,362
23900,1.016,0.16,0.084,7.65,-0.97,5.84,-79.921,62.305,37.576,0,369
23920,1.016,0.176,0.06,5.77,-1.18,4.66,-78.878,66.506,37.674,0,367
23942,1.012,0.172,0.08,6.54,-1.53,4.17,-79.526,68.88,37.674,0,364
23962,1.02,0.176,0.068,5.08,-0.7,5.7,-80.157,71.57,37.674,0,367
23984,1.016,0.172,0.056,3.27,-1.04,5.7,-79.911,71.971,37.674,0,363
24004,1.016,0.172,0.06,2.16,-0.42,4.17,-79.841,70.775,37.674,0,352
24026,1.012,0.152,0.044,6.4,0.35,3.55,-81.119,73.861,37.674,0,345
24046,1.008,0.164,0.076,6.47,-0.9,2.99,-79.84,65.141,37.216,0,338
24067,1.004,0.16,0.052,6.4,-2.64,4.31,-80.493,72.001,37.446,0,336
24088,1.02,0.16,0.064,6.75,-3.55,4.24,-80.358,72.413,37.54,0,328
24109,1.012,0.16,0.04,5.7,-4.17,3.62,-80.037,74.413,37.42,0,328
24129,1.02,0.172,0.052,3.27,-3.06,3.76,-79.988,71.971,37.485,0,318
24151,1.02,0.168,0.052,2.64,-2.57,3.55,-80.223,72.807,37.485,0,316
24171,1.02,0.16,0.044,2.92,-2.02,3.41,-80.766,74.629,37.485,0,304
24193,1.024,0.168,0.052,1.53,-1.81,3.48,-80.261,72.807,37.485,0,304
24213,1.02,0.152,0.052,2.02,-2.23,2.64,-81.055,71.119,37.485,0,328
24235,1.02,0.156,0.044,2.3,-1.95,2.85,-80.977,74.254,37.403,0,325
24255,1.02,0.156,0.044,1.67,-1.88,2.3,-80.786,75.969,37.417,0,332
24275,1.02,0.156,0.028,1.39,-0.97,3.2,-81.347,78.117,37.296,0,334
24297,1.02,0.156,0.024,0.35,-0.28,2.92,-80.444,77.911,37.465,0,466
24317,1.02,0.168,0.036,-0.28,-0.7,2.5,-80.444,77.911,37.293,0,99
24338,1.024,0.176,0.076,-5.08,-1.11,3.48,-79.402,66.649,37.293,0,311
24359,1.02,0.14,-0.016,3.55,-1.46,1.74,-82.141,96.527,37.293,0,332
24380,1.02,0.16,0.032,-1.6,0.9,2.3,-80.917,78.696,37.293,0,339
24401,1.024,0.16,0.04,-5.08,1.74,2.43,-80.857,75.969,37.293,0,365
24422,1.02,0.132,0.028,1.32,-0.21,2.37,-81.908,75.585,37.214,0,378
24442,1.02,0.14,0.036,3.13,0.21,0.77,-81.491,82.51,37.29,0,387
24464,1.024,0.164,0.032,-0.7,0.77,1.81,-80.568,73.692,37.24,0,395
24484,1.02,0.164,0.024,-1.32,1.6,2.23,-80.776,81.68,37.317,0,394
24506,1.024,0.164,0.028,-0.14,1.46,2.92,-80.778,80.317,37.38,1,379
24526,1.02,0.164,0.028,-2.09,2.85,2.43,-80.742,80.317,37.38,1,364
24548,1.016,0.16,0.032,-1.11,2.99,2.43,-80.882,78.696,37.38,1,347
24568,1.024,0.152,0.024,0.21,3.55,2.57,-81.46,81.033,37.38,1,326
24589,1.028,0.16,0.036,-1.04,3.83,2.37,-81.491,82.51,37.38,1,327
24610,1.02,0.148,0.036,-2.02,2.5,2.64,-81.75,71.081,37.437,1,336
24631,1.024,0.144,0.04,-1.67,2.37,2.64,-81.356,79.568,37.38,1,331
24651,1.016,0.152,0.036,-2.64,2.02,3.41,-81.265,76.681,37.726,1,332
24673,1.02,0.148,0.04,-3.34,2.3,3.62,-81.458,74.882,37.456,1,321
24693,1.024,0.156,0.044,-2.3,2.3,3.9,-81.011,74.254,37.562,1,292
24715,1.02,0.156,0.04,-2.85,2.16,4.03,-81.034,75.624,37.562,1,296
24735,1.02,0.156,0.044,-3.97,1.95,5.15,-80.977,74.254,37.562,1,320
24757,1.024,0.16,0.036,-3.69,1.74,4.45,-80.907,77.325,37.562,1,316
24777,1.024,0.176,0.04,-4.94,2.23,4.94,-80.359,76.613,37.562,1,308
24798,1.016,0.16,0.036,-4.59,2.23,4.59,-80.821,75.969,37.691,1,332
24819,1.012,0.152,0.032,-3.9,2.02,4.1,-81.28,78.117,37.428,1,350
24840,1.016,0.148,0.032,-4.31,1.95,4.59,-81.529,77.805,37.475,1,372
24861,1.02,0.148,0.032,-6.89,1.88,4.87,-81.562,77.805,37.249,1,139
24882,1.024,0.164,0.076,-6.68,-0.21,5.01,-79.995,65.141,37.221,1,323
24902,1.008,0.152,0.016,-2.57,-0.42,4.73,-81.384,83.997,37.221,1,330
24924,1.028,0.144,0.032,-8,1.95,3.83,-81.84,77.477,37.221,1,332
24944,1.024,0.144,0.04,-4.66,-0.83,4.17,-82.366,74.75,37.221,1,345
24966,1.016,0.14,0.044,-0.56,-1.74,4.1,-81.509,71.57,37.221,1,351
24986,1.016,0.144,0.024,-4.17,-0.28,3.83,-81.38,78.117,37.165,1,380
25007,1.024,0.148,0.052,-5.22,0.07,4.1,-81.296,70.646,36.897,1,393
25028,1.02,0.152,0.036,-4.38,0.77,4.87,-81.299,76.681,36.816,1,400
25049,1.02,0.156,0.04,-6.47,0.97,4.94,-81.034,75.624,36.737,1,396
25070,1.024,0.16,0.044,-6.61,1.67,4.03,-80.801,74.629,36.792,1,361
25091,1.024,0.148,0.032,-3.34,2.23,2.85,-81.595,77.805,36.722,1,333
25111,1.024,0.152,0.064,-4.24,1.74,3.13,-81.346,75.262,36.722,1,318
25133,1.024,0.16,0.024,-4.8,1.67,3.27,-81.124,71.119,36.722,1,313
25153,1.024,0.144,0.056,-4.8,1.46,2.64,-81.255,69.28,36.722,1,316
25175,1.016,0.14,0.048,-5.15,1.11,2.78,-81.718,71.081,36.686,1,332
25195,1.024,0.136,0.048,-5.7,1.25,3.34,-81.989,70.565,36.574,1,336
25217,1.02,0.132,0.036,-4.87,1.39,4.1,-82.366,74.75,36.493,1,333
25237,1.016,0.14,0.036,-5.36,1.11,4.59,-81.908,75.585,36.477,1,329
25257,1.02,0.148,0.032,-5.91,0.49,4.24,-81.562,77.805,36.354,1,315
25279,1.024,0.152,0.036,-6.12,-0.07,3.69,-81.086,77.011,36.27,1,321
25299,1.024,0.152,0.04,-5.15,-0.21,2.99,-81.524,74.882,36.27,1,307
25321,1.024,0.152,0.044,-4.45,-0.28,2.37,-80.977,74.254,36.27,1,314
25341,1.024,0.148,0.032,-4.59,0,1.88,-81.595,77.805,36.27,1,318
25362,1.02,0.14,0.044,-4.73,0.49,1.67,-81.819,72.558,36.27,1,457
25383,1.02,0.144,0.04,-5.08,0,2.43,-81.67,74.481,36.215,1,117
25404,1.02,0.14,0.068,-6.26,-1.95,3.55,-81.33,64.098,36.019,1,367
25425,1.02,0.132,0.016,-3.2,-3.27,3.13,-82.579,83.095,36.221,1,365
25446,1.02,0.136,0.008,-4.24,-0.97,2.02,-81.894,82.099,36.149,1,352
25466,1.016,0.148,0.056,-6.12,-1.81,2.78,-81.702,74.481,36.122,1,355
25488,1.024,0.132,0.016,1.25,-3.83,2.3,-82.238,71.57,36.122,1,355
25508,1.028,0.152,0.032,0.49,-2.37,1.6,-81.414,78.117,36.122,1,357
25530,1.028,0.144,0.048,0,-2.09,1.53,-81.607,71.57,36.122,1,369
25550,1.024,0.14,0.024,-0.77,-0.9,2.09,-82.109,80.278,36.122,1,392
25571,1.016,0.148,0.016,-3.76,0.49,2.57,-81.67,83.836,36.108,1,398
25592,1.012,0.148,0.024,-2.71,0,0.49,-81.579,80.795,35.918,1,383
25613,1.012,0.136,0.016,-1.95,0.28,-0.42,-82.048,83.486,36.068,1,358
25634,1.016,0.144,0.032,-2.23,0.42,-0.14,-81.333,76.681,36.027,1,326
25655,1.028,0.148,0.004,-3.27,1.11,1.18,-81.517,83.997,35.992,1,312
25675,1.028,0.144,0.032,-2.16,0.49,0.63,-81.84,77.477,35.992,1,312
25697,1.024,0.152,0.02,-1.6,0,1.11,-81.491,82.51,35.992,1,309
25717,1.032,0.16,0.028,-1.74,0.42,1.04,-81.061,80.08,35.992,1,308
25739,1.028,0.144,0.024,-1.11,1.46,1.32,-81.924,80.544,35.992,1,321
25759,1.02,0.148,0.024,-1.95,1.74,1.81,-81.644,80.795,36.458,1,328
25780,1.02,0.148,0.024,-2.3,0.97,1.25,-81.644,82.31,36.204,1,335
25801,1.016,0.144,0.016,-0.49,-0.83,0.83,-81.723,85.371,36.18,1,336
25822,1.024,0.148,0.028,-1.25,-0.49,1.11,-81.274,82.7,36.171,1,322
25843,1.012,0.156,0.016,-1.18,-0.7,1.04,-81.198,84.15,36.286,1,310
25864,1.024,0.148,0.016,-0.97,-0.63,1.25,-81.735,83.836,36.286,1,345
25884,1.024,0.152,0.016,-1.6,-0.77,2.09,-81.517,83.997,36.286,1,319
25906,1.024,0.156,0.02,-1.39,-0.56,1.6,-81.274,82.7,36.286,1,144
25926,1.02,0.148,0.008,-0.97,-2.37,1.25,-81.738,86.912,36.286,1,351
25948,1.024,0.156,0.024,-0.63,-0.7,0.7,-82.208,86.736,36.422,1,355
25968,1.016,0.148,-0.008,-4.1,0.49,1.39,-81.579,80.795,36.259,1,363
25989,1.012,0.16,0.02,-2.5,-0.56,2.09,-82.238,86.736,36.227,1,367
26010,1.032,0.156,0.036,3.55,-1.32,1.67,-81.188,77.011,36.316,1,370
26031,1.024,0.156,0.004,2.23,0.35,0.49,-81.341,88.538,36.164,1,361
26052,1.032,0.152,0.024,-0.14,0.63,1.88,-81.525,81.033,36.164,1,375
26073,1.024,0.16,0.012,-0.9,0,3.06,-81.101,85.717,36.164,1,367
26093,1.024,0.168,0.016,-0.49,-0.21,2.43,-80.647,84.566,36.164,1,362
26115,1.024,0.156,0.024,0.7,0.42,2.02,-81.244,81.26,36.164,1,359
26135,1.024,0.144,0.012,0.97,0.28,1.25,-81.393,81.033,36.376,1,339
26157,1.02,0.148,0.028,-0.83,1.11,1.81,-81.779,91.555,36.545,1,335
26177,1.024,0.148,-0.004,-0.63,0.07,2.99,-81.517,83.997,36.463,1,332
26199,1.016,0.144,0.016,1.18,-0.97,1.6,-81.89,83.666,36.259,1,334
26219,1.028,0.156,0.016,0.28,-1.81,1.81,-81.333,84.15,36.433,1,317
26240,1.036,0.156,0.012,0.97,-0.97,1.95,-81.418,85.608,36.433,1,313
26261,1.028,0.164,0.004,2.16,-0.77,3.27,-80.939,88.609,36.433,1,316
26281,1.024,0.168,0.012,2.5,-2.02,2.37,-80.666,85.921,36.433,1,322
26303,1.032,0.16,0.016,2.09,-1.67,2.23,-81.101,85.717,36.433,1,332
26323,1.024,0.156,0.008,1.53,-1.32,3.13,-81.319,85.608,36.287,1,334
26344,1.02,0.16,0.012,1.6,-2.02,3.41,-80.978,84.296,36.412,1,339
26365,1.016,0.168,0.004,1.81,-2.37,2.92,-80.614,88.643,36.417,1,362
26386,1.02,0.16,0,1.32,-1.81,3.13,-81.091,90.007,36.276,1,372
26407,1.028,0.168,0.004,0.63,-1.25,3.27,-80.722,88.643,36.143,1,165
26428,1.024,0.156,0.004,1.74,-4.59,2.78,-81.341,88.538,36.143,1,344
26448,1.024,0.16,0.008,2.92,-4.03,2.37,-81.114,87.144,36.143,1,338
26470,1.028,0.164,-0.028,-2.3,-1.74,1.74,-80.282,95.322,36.143,1,339
26490,1.016,0.16,0.004,0.42,-2.57,2.43,-82.218,88.37,36.143,1,356
26512,1.028,0.14,0,5.84,-1.74,1.04,-81.656,88.499,36.257,1,368
26532,1.024,0.144,-0.02,3.9,2.02,-0.07,-81.925,97.914,36.176,1,373
26553,1.024,0.16,0,2.23,3.9,0.21,-81.125,90.007,36.19,1,386
26574,1.02,0.168,-0.004,1.46,3.62,0.56,-80.65,91.371,36.526,1,385
26595,1.024,0.164,-0.004,0.42,3.06,1.25,-80.904,91.404,36.45,1,373
26615,1.024,0.16,0.008,1.88,1.53,1.32,-81.114,87.144,36.45,1,348
26637,1.024,0.168,0,2.09,1.11,1.32,-80.244,87.404,36.45,1,327
26657,1.024,0.176,0.016,1.18,0.9,2.23,-79.858,90.007,36.45,1,316
26679,1.032,0.172,-0.016,2.16,0.28,2.99,-80.053,93.821,36.45,1,314
26699,1.02,0.164,0.008,1.53,-0.7,2.09,-80.861,87.214,36.455,1,338
26720,1.024,0.16,-0.008,1.18,-1.6,2.57,-81.114,92.869,36.352,1,337
26741,1.028,0.16,-0.004,0.97,-0.77,2.71,-81.157,91.439,36.528,1,333
26762,1.012,0.164,-0.008,0.97,-0.35,2.99,-80.79,92.8,36.512,1,332
26783,1.024,0.172,0,0.35,0.28,2.37,-80.471,90.007,36.53,1,309
26804,1.028,0.172,0,0.49,0.7,1.95,-80.974,91.404,36.579,1,308
26824,1.028,0.164,-0.008,-1.95,2.78,2.09,-80.432,88.674,36.579,1,315
26846,1.024,0.168,0,-1.39,2.78,1.25,-80.214,95.201,36.579,1,320
26866,1.028,0.184,-0.008,-1.81,2.78,1.95,-79.849,92.496,36.579,1,346
26887,1.02,0.168,-0.008,-0.49,1.04,2.5,-80.643,92.733,36.579,1,324
26908,1.02,0.16,0,0.97,0.56,2.3,-81.091,90.007,36.463,1,201
26929,1.016,0.168,-0.012,0.63,-2.16,2.57,-80.593,94.093,36.523,1,353
26949,1.028,0.156,-0.004,3.48,-2.43,2.85,-81.374,91.476,36.576,1,354
26971,1.02,0.18,-0.012,-5.29,-0.77,3.76,-79.976,93.821,36.75,1,344
26991,1.008,0.164,-0.016,0.83,-3.34,5.29,-81.091,90.007,36.642,1,345
27013,1.036,0.16,0.004,3.83,-1.88,3.55,-80.714,92.733,36.642,1,344
27033,1.02,0.172,-0.02,1.04,-0.28,3.13,-80.089,97.772,36.642,1,356
27054,1.024,0.176,-0.012,1.74,0.14,4.52,-80.231,93.907,36.642,1,362
27075,1.016,0.168,-0.016,1.67,-0.83,4.03,-80.575,95.447,36.642,1,379
27096,1.004,0.164,-0.016,1.18,-1.39,4.17,-80.686,95.579,36.544,1,382
27117,1.02,0.168,-0.016,1.81,-1.74,3.13,-80.611,95.447,36.506,1,360
27138,1.024,0.164,-0.02,0.63,-0.56,3.06,-80.841,96.96,36.229,0,337
27158,1.02,0.168,-0.012,-0.97,0.21,4.52,-80.526,99.47,36.267,0,315
27180,1.02,0.176,-0.036,-1.18,-0.49,5.36,-79.938,96.347,36.291,0,310
27200,1.024,0.18,0,-0.9,-0.49,3.9,-80.772,94.093,36.291,0,314
27222,1.028,0.164,-0.028,-0.83,-0.42,5.22,-80.813,99.696,36.291,0,314
27242,1.032,0.168,-0.02,-1.95,1.53,5.08,-80.696,96.796,36.291,0,318
27262,1.028,0.16,-0.02,-2.71,2.5,5.01,-81.092,97.132,36.291,0,331
27284,1.02,0.156,-0.016,-1.74,2.99,5.08,-81.266,95.863,36.034,0,338
27304,1.024,0.152,-0.02,-1.74,3.27,4.45,-81.491,97.503,36.028,0,331
27326,1.02,0.156,-0.02,-1.6,3.41,4.73,-81.427,98.98,36.051,0,331
27346,1.024,0.148,-0.02,-0.7,3.62,5.29,-80.864,95.579,36.069,0,326
27367,1.02,0.16,-0.02,-0.35,3.83,5.5,-81.24,97.313,36.137,0,379
27388,1.028,0.156,-0.024,-0.14,4.24,5.7,-81.277,98.753,36.137,0,205
27409,1.024,0.168,-0.012,-0.35,3.83,5.29,-80.666,94.093,36.137,0,245
27430,1.032,0.16,-0.016,0.56,3.41,4.73,-81.15,95.718,36.137,0,320
27451,1.036,0.14,-0.012,0.21,4.8,3.83,-82.282,94.906,36.137,0,344
27472,1.02,0.164,-0.012,-6.68,8.42,3.41,-80.848,94.192,35.724,0,360
27493,1.024,0.136,-0.012,0.9,6.96,1.88,-82.441,90.007,35.844,0,367
27513,1.036,0.14,0.008,2.5,8.28,0.28,-82.063,90.007,35.69,0,368
27535,1.024,0.152,-0.016,1.46,9.32,-0.35,-81.592,91.514,35.686,0,374
27555,1.036,0.156,0,2.85,9.46,0.97,-81.443,90.007,35.94,0,369
27576,1.024,0.152,-0.004,0.7,9.46,2.02,-81.56,91.514,35.94,0,373
27597,1.024,0.144,0.008,2.85,8.83,1.67,-81.989,86.827,35.94,0,363
27618,1.028,0.148,0.004,4.8,9.04,1.25,-81.811,88.458,35.94,0,341
27638,1.032,0.152,0.012,2.37,11.13,1.6,-81.602,85.492,35.94,0,334
27660,1.016,0.144,-0.008,3.97,12.1,1.18,-81.927,93.187,36.173,0,338
27680,1.016,0.14,-0.004,4.73,11.41,0.7,-82.389,83.296,36.064,0,339
27702,1.028,0.132,0.02,5.5,11.76,-0.07,-82.398,86.64,36.344,0,335
27722,1.02,0.14,0.016,5.91,11.41,1.04,-82.141,83.486,36.3,0,338
27744,1.024,0.148,0.016,7.65,10.99,0.97,-81.735,83.836,36.545,0,318
27764,1.024,0.144,0.024,9.6,10.23,0.63,-81.892,80.544,36.545,0,313
27786,1.024,0.14,0.028,10.37,8.7,0.7,-82.069,78.696,36.545,0,316
27806,1.02,0.152,0.024,10.57,7.65,0.97,-81.427,81.033,36.545,0,316
27827,1.02,0.148,0.032,12.45,6.05,0.83,-81.54,79.293,36.545,0,330
27848,1.012,0.144,0.028,12.03,4.45,0.21,-81.578,82.31,36.899,0,341
27869,1.004,0.156,0.04,12.52,2.3,-0.07,-80.481,74.987,36.765,0,441
27890,0.992,0.16,0.044,13.57,-0.07,0.56,-80.51,74.629,37.085,0,155
27911,1,0.156,0.052,11.9,-2.85,1.32,-80.668,71.57,37.207,0,349
27932,0.996,0.16,0.02,16.14,-5.63,0.83,-80.81,82.881,37.344,0,343
27953,1.024,0.16,0.028,14.68,-4.45,0.7,-80.993,80.08,37.344,0,343
27973,1.028,0.176,0.02,13.08,-3.27,0.83,-80.229,83.523,37.344,0,350
27995,1.036,0.148,0.036,21.22,-3.27,1.53,-80.995,67.171,37.344,0,355
28015,1.052,0.144,0.072,22.82,-0.97,1.39,-81.674,76.334,37.344,0,372
28037,1.032,0.156,0.032,21.57,-0.14,3.55,-80.342,78.184,37.592,0,405
28057,1.036,0.18,0.04,19.27,1.11,4.52,-79.914,77.477,37.792,0,416
28079,1.012,0.176,0.024,21.77,-0.35,3.62,-80.051,82.241,37.849,0,408
28099,1.02,0.184,0.024,20.45,-0.56,3.69,-79.695,82.575,37.926,0,384
28121,1.024,0.2,0.004,18.85,1.95,4.87,-78.952,88.861,37.913,0,344
28141,1.02,0.208,0.012,16.9,3.2,6.75,-78.461,86.705,37.913,0,324
28163,1.028,0.216,-0.024,13.7,4.73,7.17,-77.909,93.129,37.913,0,315
28183,1.024,0.224,0.008,9.67,5.15,6.89,-78.132,87.885,37.913,0,315
28204,1.024,0.204,0.004,12.59,5.08,6.68,-78.861,87.716,37.913,0,318
28225,1.016,0.188,0.008,10.43,5.43,6.75,-79.513,87.57,37.955,0,332
28246,1.016,0.172,0.016,12.17,5.29,6.82,-80.357,84.692,37.998,0,328
28267,1.012,0.184,0.008,11.83,4.94,6.89,-79.692,87.517,38.27,0,323
28288,1.016,0.196,0.028,11.27,4.38,6.89,-78.979,81.876,38.284,0,336
28309,1.016,0.204,0.032,14.75,2.99,6.89,-78.517,81.091,38.179,0,317
28329,1.024,0.216,0.02,12.31,2.85,8.63,-77.389,86.994,38.179,0,319
28351,1.024,0.232,0.02,11.13,2.85,10.92,-76.89,83.24,38.179,0,323
28371,1.032,0.236,0.028,11.41,3.2,11.27,-77.199,83.124,38.179,0,430
28392,1.02,0.228,0.036,10.71,2.64,10.37,-77.255,81.033,38.179,0,113
28413,1.02,0.2,0.036,6.26,2.09,10.02,-78.738,79.802,38.228,0,362
28434,1.008,0.188,-0.02,8.07,3.13,11.13,-79.383,96.08,37.825,0,351
28455,1.012,0.2,-0.004,5.01,5.63,12.73,-78.824,91.152,37.677,0,362
28476,1,0.2,0.028,3.41,3.97,14.47,-78.588,82.036,37.547,0,361
28497,1.012,0.18,0.02,8.56,0.9,15.17,-79.348,74.225,37.407,0,350
28518,1.028,0.18,0.044,8.49,2.09,15.37,-79.53,81.535,37.449,0,348
28539,1.028,0.196,0.028,4.17,2.85,16.07,-78.596,75.431,37.449,0,355
28560,1.024,0.188,0.036,2.85,3.34,17.6,-79.418,79.166,37.449,0,360
28580,1.024,0.168,0.028,1.39,3.27,17.53,-80.563,80.544,37.449,0,357
28602,1.02,0.16,0.024,-1.18,3.97,16.63,-80.993,81.475,37.491,0,373
28622,1.028,0.14,0.016,-2.23,4.24,15.51,-82.201,83.486,36.407,0,350
28644,1.016,0.124,0.012,-1.46,4.45,15.79,-83.016,84.479,36.232,0,333
28664,1.016,0.116,0.008,-0.83,4.59,15.72,-83.489,91.982,35.916,0,329
28686,1.016,0.124,0.028,-2.64,3.48,16.07,-83.058,73.306,35.913,0,313
28706,1.028,0.096,0.028,-2.5,3.13,14.96,-84.45,73.745,35.84,0,314
28728,1.028,0.092,0.04,-2.43,2.92,14.96,-84.433,66.506,35.84,0,316
28748,1.028,0.088,0.036,-2.02,2.99,14.26,-84.722,67.756,35.84,0,309
28770,1.028,0.08,0.04,-0.9,3.13,13.77,-85.034,63.44,35.84,0,311
28790,1.024,0.076,0.036,-1.32,3.55,12.31,-85.311,64.659,35.776,0,341
28811,1.028,0.08,0.036,-1.81,4.38,11.62,-84.703,56.98,34.493,0,333
28832,1.028,0.076,0.044,-0.35,5.57,10.09,-85.009,57.729,34.415,0,331
28853,1.024,0.072,0.036,0.83,6.12,9.04,-85.652,55.496,34.331,0,328
28874,1.024,0.06,0.044,3.41,5.84,7.79,-85.85,53.75,34.203,0,409
28895,1.028,0.056,0.052,5.22,5.7,7.44,-85.755,47.125,34.069,0,120
28915,1.028,0.072,0.08,1.88,4.66,8.49,-84.029,41.99,34.069,0,292
28937,1.024,0.04,0.02,5.91,4.1,7.37,-87.506,63.44,34.069,0,333
28957,1.024,0.04,0.028,5.22,4.94,8.63,-87.277,55.012,34.069,0,344
28978,1.016,0.06,0.064,0.63,4.45,9.04,-85.071,43.156,34.069,0,365
28999,1.012,0.064,0.032,4.8,0.97,8.97,-85.171,52.599,33.969,0,375
29020,1.012,0.068,0.052,6.19,-1.74,9.39,-85.476,63.44,33.695,0,382
29041,1.016,0.072,0.036,2.85,-3.41,9.88,-84.474,58.245,33.532,0,395
29062,1.02,0.092,0.048,1.88,-6.05,10.37,-84.197,62.452,33.503,0,390
29082,1.016,0.096,0.032,3.55,-8.21,11.41,-84.318,71.57,33.334,0,374
29104,1.016,0.1,0.02,2.64,-9.95,10.78,-84.274,78.696,33.334,0,362
29124,1.036,0.116,0.028,-0.77,-10.99,4.31,-83.436,76.435,33.334,0,335
29146,1.02,0.1,0.004,-1.25,-11.62,11.69,-84.402,87.716,33.334,0,308
29166,1.04,0.08,0.016,-1.74,-11.69,13.36,-85.489,98.538,33.334,0,324
29188,1.02,0.08,-0.008,-4.52,-12.17,13.57,-85.962,86.827,32.792,0,339
29208,1.016,0.032,-0.008,-6.89,-13.08,10.3,-88.147,104.044,32.782,0,348
29230,1.02,-0.004,-0.036,-7.65,-14.47,10.71,-87.973,-173.673,32.423,0,345
29250,1.02,-0.012,-0.036,-2.99,-17.53,11.55,-87.876,-161.577,32.34,0,321
29272,1.024,0.004,-0.032,-4.38,-18.3,11.55,-88.203,172.888,32.16,0,317
29293,1.024,0.008,-0.024,-2.57,-18.64,8.97,-88.591,161.577,32.16,0,328
29314,1.036,0,-0.032,-2.99,-19.48,9.11,-87.575,180.013,32.16,0,309
29334,1.032,0,-0.044,-4.87,-18.85,9.6,-87.125,-175.614,32.16,0,316
29356,1.036,-0.012,-0.064,-4.59,-18.78,8.35,-86.164,-166.772,32.16,0,341
29377,1.032,-0.012,-0.068,-4.52,-18.71,7.72,-86.178,-170.005,31.243,0,449
29398,1.036,-0.012,-0.084,-3.41,-19.2,6.54,-85.324,-171.883,31.254,0,124
29419,1.032,0.004,-0.052,-8.35,-20.38,6.47,-87.113,175.614,30.987,0,337
29440,1.048,-0.016,-0.108,-3.69,-20.17,4.1,-84.059,-171.586,30.764,0,357
29461,1.032,-0.04,-0.084,0.14,-20.17,2.64,-84.483,-146.321,30.92,0,342
29481,1.04,-0.044,-0.06,-7.1,-18.43,3.41,-85.162,-144.173,30.92,0,321
29503,1.048,-0.06,-0.092,-3.41,-18.09,3.48,-84.608,-136.647,30.92,0,328
29523,1.048,-0.08,-0.1,1.04,-18.57,3.41,-83.039,-141.351,30.92,0,338
29545,1.052,-0.068,-0.072,-0.83,-19.06,3.76,-84.628,-136.647,30.92,0,365
29565,1.064,-0.076,-0.108,2.43,-19.55,3.9,-82.931,-144.876,30.732,0,376
29587,1.092,-0.076,-0.116,13.15,-19.76,0.97,-82.769,-146.779,30.587,0,376
29607,1.076,-0.076,-0.148,16.35,-10.37,-3.69,-81.216,-152.83,30.699,0,357
29629,1.044,-0.08,-0.116,15.37,-7.72,-6.89,-83.396,-131.019,30.665,0,325
29649,1.056,-0.088,-0.08,9.6,-7.51,-6.05,-83.485,-129.569,30.478,0,306
29671,1.06,-0.092,-0.096,-18.57,7.51,1.74,-82.282,-144.101,30.478,0,313
29691,1.064,-0.084,-0.068,-21.15,2.43,6.68,-84.206,-129,30.478,0,366
29713,1.068,-0.044,-0.088,-21.29,1.88,-3.2,-84.743,-153.446,30.478,0,340
29733,1.056,0.016,-0.136,-23.1,4.24,-12.45,-82.617,173.303,30.478,0,333
29755,1.056,0.056,-0.144,-28.45,6.68,-16.21,-81.682,158.761,31.076,0,312
29776,1.06,0.036,-0.148,-28.31,9.67,-17.11,-82.223,173.673,31.175,0,348
29797,1.048,0.008,-0.14,-21.84,10.64,-17.32,-82.798,174.818,31.285,0,341
29818,1.036,0.012,-0.152,-17.39,13.22,-16.83,-81.772,172.317,31.851,0,347
29839,1.024,0.016,-0.144,-17.32,13.15,-14.47,-81.953,173.673,32.021,0,311
29860,1.016,-0.004,-0.14,-11.06,11.13,-11.41,-82.157,-178.377,32.021,0,320
29882,1.02,-0.036,-0.112,-2.5,7.65,-6.47,-83.427,-162.193,32.021,0,415
29902,1.008,-0.016,-0.104,-2.99,6.26,-3.2,-84.047,-171.266,32.021,0,144
29924,1,0,-0.116,-9.67,3.2,-2.3,-81.419,177,32.021,0,358
29944,1.012,0.012,-0.144,-7.93,1.53,-5.7,-81.444,172.317,33.076,0,331
29966,0.984,0.02,-0.18,-2.02,-0.35,-4.59,-79.849,166.62,33.244,0,328
29986,0.972,0.092,-0.14,-4.31,-4.03,-4.1,-80.227,146.7,33.309,0,295
30007,0.972,0.112,-0.164,8.28,-8.7,-3.41,-78.458,145.681,33.423,0,307
30028,0.988,0.124,-0.164,12.17,-10.78,-5.08,-78.25,142.918,33.452,0,286
30049,0.996,0.128,-0.184,9.81,-12.59,-12.24,-77.323,145.186,33.452,0,300
30070,1.016,0.136,-0.168,10.64,-15.86,-11.83,-77.995,141.019,33.452,0,323
30092,1.008,0.112,-0.18,10.02,-17.46,-3.41,-78.194,147.211,33.452,1,329
30112,1.044,0.112,-0.188,9.32,-14.96,3.76,-77.239,147.392,33.452,1,352
30134,1.08,0.136,-0.216,8.63,-12.59,3.06,-76.708,147.815,34.227,1,342
30154,1.088,0.16,-0.184,8.35,-12.45,2.23,-77.374,139.001,34.375,1,341
30176,1.104,0.112,-0.184,14.47,-9.88,2.85,-78.965,148.682,34.378,1,342
30196,1.112,0.104,-0.144,13.84,-10.64,6.19,-80.93,144.173,34.206,1,336
30218,1.12,0.104,-0.14,12.52,-4.94,9.6,-81.155,143.403,34.322,1,333
30238,1.08,0.132,-0.148,6.68,-1.67,8.56,-78.779,138.104,34.322,1,328
30260,1.052,0.148,-0.172,3.9,1.25,10.43,-77.532,140.721,34.322,1,355
30280,1.02,0.132,-0.172,13.36,-2.85,8.28,-77.293,140.721,34.322,1,336
30302,1.012,0.168,-0.188,15.51,-0.56,6.33,-76.016,138.226,34.322,1,335
30322,1.032,0.172,-0.2,10.71,4.03,8.97,-75.667,139.315,34.05,1,340
30344,1.016,0.152,-0.204,12.03,4.45,5.43,-75.948,143.321,33.912,1,333
30364,1.032,0.152,-0.192,7.23,7.37,4.52,-76.657,141.643,33.775,1,352
30386,1.028,0.132,-0.18,5.91,7.03,2.23,-77.675,142.937,33.873,1,390
30406,1.032,0.128,-0.18,4.45,8.77,2.64,-78.476,141.181,33.815,1,192
30428,1.024,0.148,-0.188,-1.39,7.72,2.43,-77.354,146.321,33.815,1,330
30448,1.02,0.1,-0.208,-0.77,4.03,1.18,-77.256,154.335,33.815,1,298
30470,1.024,0.096,-0.16,-3.83,5.36,1.74,-79.679,149.047,33.815,1,291
30490,1.028,0.1,-0.2,-8.35,5.57,4.45,-77.734,153.446,33.815,1,320
30512,1.056,0.076,-0.16,1.04,3.62,3.48,-80.484,154.604,33.979,1,347
30532,1.084,0.068,-0.156,0.35,8.7,2.85,-81.084,156.459,33.786,1,363
30553,1.076,0.052,-0.132,-5.7,12.1,5.29,-81.27,165.631,33.825,1,382
30574,1.024,0,-0.172,-0.83,7.58,9.11,-79.721,-173.809,33.701,1,396
30595,1.012,-0.032,-0.216,-2.71,5.08,15.79,-77.889,-170.55,33.869,1,346
30616,1.032,-0.032,-0.188,5.01,0.7,16.97,-79.536,-170.353,33.869,1,320
30638,1.088,0.04,-0.192,3.76,-0.28,18.23,-79.788,168.244,33.869,1,282
30658,1.084,0.096,-0.144,-1.39,2.3,18.23,-80.935,146.321,33.869,1,283
30680,1.072,0.096,-0.144,-0.7,5.77,16.7,-80.835,146.321,33.869,1,300
30700,1.04,0.072,-0.136,2.92,3.55,10.09,-81.589,152.114,33.278,1,340
30722,1.032,0.088,-0.132,-3.34,6.19,5.63,-80.24,144.173,32.584,1,364
30742,1.028,0.104,-0.148,-6.96,8,5.77,-79.823,143.891,32.409,1,402
30764,1.008,0.084,-0.152,-6.96,7.51,5.63,-80.231,151.085,32.433,1,344
30784,1.012,0.092,-0.144,-8.42,8,3.83,-80.422,147.437,32.445,1,331
30806,1.016,0.08,-0.148,-11.34,8.63,3.69,-80.604,151.618,32.445,1,335
30826,1.004,0.064,-0.152,-10.71,8.63,3.69,-80.677,157.178,32.445,1,331
30848,1,0.06,-0.164,-9.74,6.82,0.28,-80.1,159.917,32.445,1,335
30868,0.992,0.08,-0.168,-9.6,5.63,1.32,-78.998,153.982,32.445,0,396
30888,0.992,0.064,-0.152,0.83,2.43,0.83,-81.413,156.813,32.365,0,265
30910,1.012,0.076,-0.16,-12.94,6.61,-1.25,-80.493,151.618,32.133,0,379
30930,0.992,0.04,-0.16,-8.49,9.25,-2.71,-80.567,165.976,32.225,0,375
30952,0.972,0.052,-0.164,-12.1,13.77,-2.57,-79.968,162.42,32.304,0,404
30973,0.976,0.068,-0.2,-18.43,12.31,0.56,-77.793,161.234,32.336,0,383
30994,1.024,0.036,-0.14,-1.53,2.09,-3.2,-81.971,165.591,32.336,0,369
31015,1.072,0.048,-0.12,-3.69,2.64,-4.59,-83.132,158.21,32.336,0,353
31036,1.076,0.056,-0.12,-12.17,5.77,-0.28,-82.818,159.456,32.336,0,366
31057,1.076,0.036,-0.1,-6.75,4.59,-0.07,-83.473,166.878,32.336,0,370
31078,1.056,0.056,-0.12,-5.29,5.5,3.06,-82.858,154.995,32.638,0,387
31099,1.048,0.052,-0.128,-3.83,5.63,3.48,-82.496,157.902,32.887,0,368
31120,1.056,0.044,-0.116,-2.78,6.75,1.67,-83.305,159.239,32.887,0,345
31140,1.056,0.036,-0.096,-3.76,7.44,2.99,-84.461,159.456,32.638,0,332
31162,1.052,0.036,-0.112,-4.17,8.83,4.24,-83.625,162.193,32.784,0,311
31182,1.04,0.024,-0.12,-0.56,6.54,3.83,-84.103,160.213,32.796,0,308
31204,1.028,0.052,-0.088,-2.64,7.79,4.73,-83.395,150.029,32.796,0,301
31224,1.044,0.072,-0.116,-5.22,10.57,4.45,-82.71,147.276,32.796,0,305
31246,1.032,0.068,-0.108,-7.03,11.27,5.91,-82.956,147.815,32.796,0,302
31266,1.024,0.056,-0.112,-2.5,10.02,3.62,-83.034,153.446,32.653,0,322
31288,1.024,0.056,-0.112,-2.3,9.18,3.06,-83.034,153.446,32.803,0,317
31308,1.036,0.036,-0.1,-1.46,6.89,2.43,-84.149,160.213,32.588,0,308
31330,1.028,0.028,-0.096,2.64,4.45,0.35,-84.45,163.752,32.506,0,309
31350,1.036,0.04,-0.108,1.18,2.78,0.97,-83.737,157.079,32.709,0,337
31372,1.024,0.044,-0.112,2.57,-0.42,0.28,-83.293,150.029,32.753,0,288
31392,1.024,0.06,-0.1,2.5,-0.63,-0.63,-83.774,135.01,32.753,0,215
31413,1.024,0.068,-0.156,0.9,-3.27,1.04,-80.57,156.459,32.753,0,308
31434,1.024,0.044,-0.088,5.5,-5.5,0.49,-84.518,153.446,32.753,0,321
31455,1.036,0.08,-0.1,-5.77,-3.34,1.88,-82.959,141.351,32.763,0,345
31476,1.044,0.056,-0.148,-1.25,-1.74,3.41,-81.387,159.286,33.048,0,356
31497,1.056,0.028,-0.072,5.84,-4.59,2.09,-85.822,158.761,32.867,0,359
31518,1.044,0.052,-0.132,3.27,-0.7,1.18,-82.972,154.242,32.808,0,367
31539,1.044,0.068,-0.092,1.46,0.07,1.32,-84.365,147.54,32.8,0,361
31560,1.056,0.04,-0.096,5.7,-0.63,1.39,-83.68,157.845,32.763,0,358
31581,1.06,0.064,-0.116,5.5,2.57,2.43,-82.882,151.125,32.763,0,346
31602,1.06,0.064,-0.108,6.82,4.38,1.32,-83.252,149.36,32.763,0,330
31623,1.056,0.06,-0.128,8.07,7.72,1.11,-82.381,154.897,32.763,0,319
31643,1.04,0.052,-0.12,9.32,7.37,2.64,-82.839,156.583,32.763,0,336
31665,1.04,0.068,-0.132,7.93,8.35,2.71,-81.881,152.756,33.103,0,335
31685,1.044,0.06,-0.108,9.11,8.35,1.81,-82.987,151.833,33.066,0,335
31707,1.016,0.064,-0.116,9.6,7.58,1.81,-82.902,147.815,33.236,0,335
31727,1.036,0.08,-0.108,9.67,7.72,1.81,-83.146,142.776,33.137,0,320
31749,1.04,0.076,-0.116,6.89,9.67,3.27,-82.411,146.779,33.095,0,314
31769,1.02,0.064,-0.096,6.12,8.83,3.2,-83.553,146.321,33.095,0,318
31791,1.008,0.052,-0.096,5.98,6.05,3.83,-83.824,151.568,33.095,0,320
31811,1.008,0.048,-0.088,8.07,2.99,2.99,-84.327,151.401,33.095,0,317
31832,1.008,0.048,-0.08,7.17,0.97,2.09,-84.718,149.047,33.095,0,329
31853,0.992,0.044,-0.084,9.6,-2.57,2.43,-84.365,153.446,33.341,0,394
31874,1.004,0.044,-0.08,9.88,-5.77,1.39,-84.656,143.626,33.435,0,303
31895,1.016,0.076,-0.04,5.08,-8.28,2.37,-85.174,117.767,33.3,0,262
31916,1.02,0.06,-0.136,6.89,-11.2,1.04,-81.715,156.206,33.297,0,336
31937,1.02,0.072,-0.064,7.65,-15.86,2.3,-84.611,131.643,33.17,0,344
31958,1.064,0.108,-0.064,-5.43,-11.97,2.5,-83.277,120.66,33.17,0,342
31979,1.068,0.076,-0.096,2.99,-11.27,3.76,-83.466,141.643,33.17,0,352
32000,1.072,0.048,-0.06,9.46,-12.03,2.64,-84.395,145.724,33.17,0,361
32021,1.076,0.068,-0.088,4.52,-8.56,3.06,-84.085,136.479,33.17,0,390
32041,1.064,0.072,-0.088,1.18,-6.26,3.83,-83.483,152.604,33.199,0,402
32062,1.044,0.044,-0.12,2.37,-4.73,3.76,-83.026,159.875,33.337,0,408
32083,1.044,0.072,-0.12,0.83,-2.85,4.52,-82.371,149.047,33.119,0,392
32104,1.032,0.084,-0.124,-2.3,-1.39,4.94,-81.748,145.896,33.227,0,356
32125,1.024,0.076,-0.14,-0.77,-0.07,3.69,-81.164,151.516,33.215,0,324
32146,1.036,0.072,-0.108,0.35,-1.53,2.92,-82.865,146.321,33.215,0,316
32167,1.032,0.08,-0.136,-0.42,-1.39,2.43,-81.907,150.653,33.215,0,316
32188,1.032,0.072,-0.12,-2.23,-1.95,1.95,-82.423,150.472,33.215,0,321
32209,1.032,0.068,-0.132,-4.03,-1.6,3.27,-81.525,152.114,33.215,0,335
32230,1.032,0.072,-0.124,-6.26,-1.74,4.17,-82.096,149.87,33.256,0,339
32251,1.04,0.08,-0.136,-8.77,-1.32,4.52,-81.379,149.545,33.191,0,336
32272,1.032,0.084,-0.128,-7.86,-1.46,3.48,-81.568,146.736,33.065,0,342
32293,1.04,0.076,-0.12,-9.39,-1.39,2.92,-82.229,147.663,32.91,0,329
32314,1.04,0.068,-0.116,-8.83,-0.7,3.27,-81.818,152.756,33.193,0,303
32335,1.032,0.064,-0.132,-9.25,-0.42,4.1,-81.231,151.516,33.193,0,306
32356,1.04,0.072,-0.14,-7.79,-1.25,4.03,-81.642,150.08,33.193,0,329
32377,1.04,0.072,-0.136,-8.21,-1.25,3.06,-81.589,152.114,33.193,0,354
32398,1.028,0.068,-0.128,-11.76,-1.32,3.55,-81.981,152.032,33.193,0,196
32419,1.036,0.056,-0.136,-12.8,-2.02,3.48,-81.926,157.631,32.995,0,343
32440,1.02,0.048,-0.192,-7.79,-2.16,4.59,-79.025,165.976,33.089,0,351
32461,1.04,0.064,-0.132,-11.97,-1.11,4.45,-81.977,154.145,32.963,0,355
32482,1.048,0.076,-0.168,-15.23,1.46,5.15,-80.552,156.986,32.904,0,361
32503,1.036,0.06,-0.128,-3.76,-1.81,4.8,-82.295,154.897,32.933,0,355
32524,1.06,0.072,-0.12,-5.29,-1.67,4.52,-82.883,136.229,32.933,0,365
32545,1.048,0.096,-0.128,-13.08,-3.27,4.45,-81.326,143.141,32.933,0,376
32566,1.028,0.084,-0.172,-15.86,-2.02,5.43,-79.458,153.982,32.933,0,379
32587,1.028,0.056,-0.156,-10.99,-3.27,5.77,-80.847,160.265,32.933,0,381
32608,1.032,0.064,-0.152,-11.69,-2.09,4.45,-80.926,157.178,32.56,0,367
32629,1.028,0.056,-0.164,-11.69,-0.63,3.69,-79.578,166.564,32.503,0,343
32650,1.028,0.044,-0.156,-8.9,-2.57,3.55,-81.607,161.577,32.426,0,334
32671,1.036,0.036,-0.168,-7.72,-2.09,3.9,-80.51,161.159,32.347,0,319
32692,1.04,0.06,-0.152,-8.07,-2.3,3.83,-81.076,158.471,32.234,0,308
32713,1.036,0.056,-0.156,-7.3,-1.46,3.2,-80.916,160.265,32.234,0,304
32734,1.036,0.06,-0.152,-6.61,-1.67,3.41,-81.042,158.471,32.234,0,303
32755,1.032,0.064,-0.152,-5.84,-1.6,3.76,-80.926,157.178,32.234,0,298
32776,1.024,0.064,-0.16,-5.29,-1.67,2.85,-80.453,158.21,32.234,0,325
32797,1.028,0.052,-0.152,-5.63,-2.43,2.64,-80.926,165.976,31.994,0,336
32818,1.036,0.048,-0.16,-3.13,-2.99,1.81,-80.438,159.917,32.026,0,330
32839,1.04,0.068,-0.168,-3.9,-2.16,1.11,-80.036,159.602,32.099,0,334
32860,1.056,0.06,-0.176,-2.71,-0.97,0.83,-80.019,161.187,32.046,0,336
32881,1.052,0.06,-0.168,-2.02,-0.83,-0.21,-80.382,160.358,32.115,0,431
32902,1.044,0.056,-0.164,-2.85,-1.25,0.07,-80.581,161.159,32.115,0,134
32923,1.056,0.072,-0.136,-5.84,-1.67,0.7,-81.715,152.114,32.115,0,335
32944,1.048,0.052,-0.22,-0.14,-0.9,-0.56,-77.833,166.714,32.115,0,335
32965,1.036,0.044,-0.172,3.27,-1.53,-0.07,-81.556,158.761,32.115,0,351
32986,1.052,0.056,-0.148,-4.59,0.83,0.63,-78.98,162.991,32.387,0,370
33006,1.028,0.048,-0.184,4.73,-0.07,1.04,-79.526,165.391,32.5,1,383
33028,1.036,0.06,-0.172,11.13,-1.81,-0.14,-80.033,160.781,32.439,1,388
33048,1.04,0.08,-0.184,2.64,0.14,0,-79.086,156.513,32.225,1,405
33070,1.04,0.076,-0.184,3.13,0.97,-0.14,-79.169,157.569,32.458,1,387
33090,1.032,0.056,-0.18,7.17,0,0.42,-79.654,162.73,32.458,1,378
33112,1.032,0.072,-0.192,3.97,1.53,3.27,-78.483,156.382,32.458,1,356
33132,1.024,0.084,-0.192,1.81,3.13,4.24,-78.249,159.205,32.458,1,329
33154,1.024,0.064,-0.2,5.43,2.43,3.83,-80.059,153.446,32.458,1,327
33174,1.024,0.072,-0.196,4.59,1.46,3.9,-78.48,159.841,32.551,1,337
33196,1.028,0.064,-0.172,3.27,0.97,3.69,-79.884,159.602,32.5,1,336
33216,1.032,0.06,-0.184,3.2,1.46,3.2,-79.384,161.951,32.666,1,339
33238,1.032,0.056,-0.184,1.95,1.46,4.03,-79.449,163.085,32.58,1,335
33258,1.04,0.072,-0.184,0.49,2.02,4.31,-79.249,158.641,32.632,1,317
33278,1.036,0.068,-0.188,-1.04,2.43,3.69,-79.243,159.729,32.632,1,310
33300,1.032,0.056,-0.192,-2.37,2.5,3.27,-79.139,162.312,32.632,1,322
33320,1.036,0.056,-0.18,-1.39,1.32,3.27,-79.324,163.425,32.632,1,316
33342,1.036,0.064,-0.18,-2.3,1.53,3.97,-79.558,160.439,32.632,1,316
33362,1.036,0.06,-0.184,-2.5,1.46,4.24,-79.424,161.951,32.593,1,337
33384,1.036,0.06,-0.188,-0.83,1.53,4.17,-79.221,162.312,32.603,1,364
33404,1.036,0.056,-0.18,0.28,1.32,3.69,-79.693,162.73,32.547,1,407
33426,1.036,0.06,-0.168,-2.23,2.02,3.97,-80.236,160.358,32.467,1,183
33446,1.044,0.068,-0.16,-4.45,0.97,4.38,-78.916,164.067,32.358,1,348
33468,1.032,0.056,-0.216,-2.3,1.11,3.76,-78.289,164.662,32.358,1,341
33488,1.028,0.072,-0.152,-4.66,1.04,4.17,-80.714,154.665,32.358,1,350
33510,1.04,0.06,-0.192,-5.15,1.67,4.38,-79.059,162.658,32.358,1,351
33530,1.036,0.044,-0.164,3.69,-1.11,4.73,-80.698,164.994,32.358,1,361
33552,1.04,0.052,-0.192,2.99,1.88,4.94,-79.178,164.858,32.358,1,394
33572,1.036,0.056,-0.172,-0.97,3.2,5.29,-80.102,161.978,32.027,1,404
33594,1.032,0.044,-0.188,0.21,3.13,4.73,-79.164,168.244,32.226,1,408
33614,1.024,0.044,-0.184,0.63,2.02,5.29,-79.637,163.899,32.004,1,393
33636,1.036,0.052,-0.18,-0.49,2.78,5.08,-79.316,160.833,32.069,1,357
33656,1.036,0.056,-0.2,0.42,4.1,5.29,-78.67,164.37,32.047,1,331
33677,1.032,0.056,-0.164,1.95,2.99,5.5,-80.474,161.159,32.047,1,316
33698,1.04,0.056,-0.2,0.07,5.29,5.01,-78.712,164.37,32.047,1,314
33719,1.044,0.052,-0.156,0.21,4.38,4.24,-81.055,161.577,32.047,1,313
33740,1.04,0.04,-0.172,1.88,4.38,4.03,-80.369,166.92,31.959,1,332
33761,1.04,0.056,-0.168,-0.7,5.43,4.66,-80.51,159.917,31.972,1,339
33782,1.044,0.052,-0.176,-1.32,6.61,5.15,-80.263,164.419,31.851,1,338
33803,1.04,0.044,-0.156,0.42,5.63,4.73,-81.387,163.868,31.75,1,335
33824,1.048,0.048,-0.152,0,5.7,4.52,-81.358,162.486,31.873,1,320
33845,1.04,0.052,-0.148,0.9,5.84,4.17,-81.428,160.653,31.873,1,307
33866,1.032,0.048,-0.152,1.32,5.63,4.66,-81.226,162.486,31.873,1,308
33887,1.036,0.048,-0.152,1.25,5.84,4.94,-81.259,162.486,31.873,1,310
33908,1.024,0.044,-0.144,2.85,4.1,5.5,-81.641,163.021,31.873,1,413
33929,1.024,0.044,-0.14,6.54,2.78,6.61,-82.46,159.456,31.851,1,177
33949,1.032,0.048,-0.12,3.83,0.42,7.03,-81.671,161.577,31.643,1,362
33971,1.04,0.048,-0.172,1.11,2.78,6.75,-80.871,164.636,31.629,1,350
33991,1.032,0.032,-0.168,-1.81,4.1,5.77,-80.597,169.228,31.419,1,351
34013,1.036,0.048,-0.136,-3.83,2.85,5.5,-82.081,160.572,31.319,1,341
34033,1.048,0.04,-0.148,2.16,1.39,5.36,-81.683,164.888,31.397,1,337
34055,1.048,0.04,-0.152,3.55,4.24,3.83,-81.477,165.269,31.397,1,343
34075,1.044,0.052,-0.14,-0.07,5.63,4.8,-81.865,159.635,31.397,1,348
34097,1.036,0.036,-0.144,-1.04,4.87,5.08,-81.511,168.124,31.397,1,351
34117,1.024,0.028,-0.144,-0.9,3.34,5.15,-82.45,166.385,31.397,1,364
34139,1.032,0.036,-0.128,-1.18,2.57,5.15,-82.664,164.303,31.352,1,351
34159,1.028,0.024,-0.136,-1.81,2.02,4.8,-82.355,170.005,31.309,1,334
34181,1.02,0.036,-0.124,-1.32,1.6,4.87,-82.791,163.823,31.153,1,325
34201,1.032,0.048,-0.152,-1.53,2.43,4.73,-81.226,162.486,30.987,1,306
34222,1.032,0.048,-0.136,-0.07,1.25,3.2,-82.05,160.572,30.987,1,298
34243,1.032,0.044,-0.128,-1.88,0.77,2.37,-82.243,165.186,30.987,1,295
34264,1.032,0.036,-0.136,-2.16,0.21,2.85,-82.54,164.757,30.987,1,302
34285,1.036,0.04,-0.132,-2.78,0.28,2.23,-82.423,163.154,30.987,1,304
34306,1.024,0.028,-0.144,-3.06,0,2.02,-81.853,169.009,30.987,1,323
34327,1.032,0.02,-0.136,-1.18,-1.25,1.46,-82.419,171.647,30.954,1,328
34348,1.032,0.024,-0.132,-0.97,-1.74,1.25,-82.599,169.708,31.043,1,323
34369,1.04,0.024,-0.136,-2.43,-2.09,1.74,-82.442,170.005,31.109,1,324
34390,1.04,0.024,-0.136,0.28,-3.55,3.13,-82.442,170.005,31.065,1,305
34411,1.044,0.036,-0.152,0,-2.37,6.33,-81.254,167.018,31.032,1,355
34432,1.036,0.036,-0.152,-0.14,-2.09,6.68,-81.753,167.812,31.032,1,236
34452,1.052,0.032,-0.132,0.63,-4.17,4.38,-83.009,163.823,31.032,1,208
34473,1.044,0.04,-0.172,-0.07,-3.13,2.92,-80.405,166.92,31.032,1,306
34494,1.032,0.036,-0.152,-0.63,-3.62,3.06,-81.399,166.688,31.032,1,341
34515,1.028,0.028,-0.168,-3.48,-1.81,3.76,-80.599,170.55,30.888,1,352
34536,1.028,0.02,-0.16,2.3,-3.48,5.08,-81.092,172.888,30.987,1,359
34557,1.04,0.016,-0.168,6.33,-2.92,4.38,-80.789,174.573,30.789,1,367
34578,1.036,0.032,-0.168,1.46,0.49,4.03,-81.287,167.018,30.81,1,365
34599,1.048,0.032,-0.164,0.7,0.35,1.6,-80.738,171.883,30.766,1,359
34620,1.028,0.024,-0.164,0.56,-0.77,1.39,-80.348,170.766,30.766,1,348
34641,1.036,0.028,-0.16,2.09,-0.77,1.25,-81.095,170.086,30.766,1,344
34662,1.036,0.028,-0.152,2.92,-0.77,1.74,-81.521,169.575,30.766,1,315
34683,1.036,0.024,-0.18,2.3,0.83,2.71,-80.064,172.418,30.766,1,317
34704,1.028,0.028,-0.168,1.39,1.74,4.24,-80.599,170.55,30.921,1,326
34724,1.032,0.028,-0.184,1.53,0.83,2.09,-79.783,171.36,30.965,1,333
34746,1.028,0.028,-0.152,1.88,0.21,1.25,-80.245,170.973,30.701,1,335
34766,1.036,0.024,-0.18,1.81,1.39,1.95,-80.209,169.708,30.811,1,333
34788,1.04,0.028,-0.172,0.97,2.16,2.99,-80.494,170.766,30.766,1,322
34808,1.032,0.028,-0.18,-0.14,1.6,2.78,-79.995,171.171,30.766,1,309
34830,1.032,0.032,-0.176,-0.49,0.9,2.37,-80.172,169.708,30.766,1,310
34850,1.032,0.028,-0.176,-0.42,0.77,2.57,-80.208,170.973,30.766,1,310
34872,1.028,0.024,-0.172,0.42,0.42,1.88,-80.417,172.069,30.766,1,321
34892,1.024,0.032,-0.172,0.42,1.04,1.46,-79.59,170.147,30.91,1,335
34914,1.016,0.032,-0.188,0,2.23,1.95,-79.08,168.244,31.065,1,372
34934,1.016,0.032,-0.196,-0.77,2.64,2.23,-79.336,169.172,30.943,1,314
34955,1.04,0.032,-0.156,1.46,5.63,1.95,-81.3,168.42,30.954,1,238
34976,1.02,0.028,-0.184,-1.11,10.16,-0.07,-79.665,171.36,31.087,0,327
34997,0.996,0.028,-0.18,3.9,9.39,-0.35,-79.641,171.171,31.087,0,332
35018,1.02,0.06,-0.18,-0.77,7.86,0.7,-79.468,161.577,31.087,0,342
35039,1.04,0.044,-0.192,2.3,6.47,0.28,-79.281,167.105,31.087,0,348
35060,1.048,0.016,-0.144,6.89,5.08,-2.78,-80.593,176.022,31.087,0,358
35081,1.032,0.028,-0.184,3.41,8,-1.81,-80.151,164.419,31.032,0,380
35102,1.036,0.048,-0.164,-2.16,9.95,1.46,-80.166,163.191,31.365,0,388
35123,1.028,0.028,-0.152,0.7,8.14,1.88,-81.456,169.575,31.397,0,386
35144,1.028,0.036,-0.144,2.92,5.63,0.7,-81.79,165.976,31.487,0,374
35165,1.044,0.048,-0.152,-0.83,6.54,0.83,-81.325,162.486,31.331,0,337
35186,1.044,0.032,-0.152,0.35,7.51,2.16,-81.543,168.124,31.331,0,320
35207,1.04,0.032,-0.136,-0.63,6.89,2.5,-82.355,166.772,31.331,0,314
35228,1.04,0.036,-0.156,-0.21,6.26,2.02,-81.642,166.341,31.331,0,316
35249,1.04,0.044,-0.132,-0.28,5.91,1.11,-81.828,164.488,31.331,0,325
35269,1.032,0.036,-0.14,-1.25,4.94,1.39,-82.032,165.591,31.565,0,338
35291,1.032,0.044,-0.136,0.7,3.69,2.57,-82.12,162.084,31.631,0,346
35311,1.032,0.056,-0.136,-1.53,4.38,3.62,-81.895,157.631,31.721,0,348
35333,1.024,0.052,-0.128,-3.27,3.69,3.2,-82.322,157.902,31.789,0,346
35353,1.036,0.056,-0.144,-2.78,2.16,3.34,-81.524,158.761,31.798,0,324
35375,1.036,0.048,-0.128,-1.18,1.11,3.2,-81.631,160.157,31.798,0,315
35395,1.04,0.056,-0.14,-0.42,0.97,2.78,-82.415,161.577,31.798,0,316
35417,1.048,0.044,-0.14,-0.63,0.97,3.13,-81.83,163.021,31.798,0,328
35437,1.044,0.04,-0.144,-0.42,1.39,3.76,-81.859,164.488,31.798,0,367
35459,1.036,0.04,-0.14,-2.02,2.3,3.83,-82.006,164.067,31.665,0,203
35479,1.036,0.04,-0.144,-5.57,0.07,3.34,-81.797,164.488,31.564,0,370
35501,1.028,0.024,-0.18,-1.95,1.11,4.24,-79.988,172.418,31.397,0,364
35521,1.032,0.036,-0.116,-7.23,0.28,4.87,-83.294,162.771,31.553,0,370
35543,1.036,0.06,-0.148,-10.37,1.95,6.96,-80.306,161.577,31.509,0,356
35563,1.036,0.044,-0.14,-0.83,0.07,6.4,-83.395,162.771,31.509,0,360
35584,1.056,0.044,-0.132,0.77,2.09,3.69,-81.926,159.635,31.509,0,364
35605,1.052,0.056,-0.132,-4.66,5.01,2.85,-82.244,157.023,31.509,0,370
35625,1.036,0.028,-0.14,-2.5,4.87,2.16,-82.159,168.703,31.509,0,383
35647,1.032,0.024,-0.148,-0.28,5.36,1.88,-81.74,170.802,31.309,0,390
35667,1.036,0.048,-0.128,-3.34,6.4,1.74,-82.489,159.456,31.287,0,375
35689,1.032,0.04,-0.128,-2.3,6.47,1.18,-82.602,162.658,31.411,0,350
35709,1.028,0.036,-0.112,0.63,4.66,1.25,-82.12,162.084,31.401,0,343
35731,1.032,0.064,-0.14,-0.42,4.66,2.43,-81.748,151.401,31.265,0,323
35751,1.036,0.06,-0.124,-0.49,3.27,1.81,-83.149,157.532,31.265,0,322
35773,1.036,0.04,-0.136,-0.56,2.85,1.6,-82.214,163.623,31.265,0,317
35793,1.048,0.04,-0.124,-0.56,2.16,2.3,-82.919,162.133,31.265,0,320
35815,1.044,0.044,-0.124,-1.46,2.43,2.71,-82.823,160.475,31.265,0,321
35835,1.032,0.048,-0.136,-1.88,2.71,2.71,-82.05,160.572,31.321,0,337
35856,1.036,0.044,-0.14,-1.74,2.64,2.92,-81.944,162.565,31.4,0,357
35877,1.032,0.04,-0.12,-0.49,2.02,3.41,-82.847,163.823,31.488,0,355
35898,1.036,0.036,-0.12,-0.49,1.67,3.2,-82.865,162.133,31.554,0,347
35919,1.04,0.044,-0.128,-0.97,1.6,3.06,-82.591,161.041,31.532,0,321
35940,1.04,0.04,-0.132,0.07,2.3,2.99,-82.451,163.154,31.555,0,381
35961,1.036,0.052,-0.128,-0.42,2.09,2.57,-82.41,157.902,31.555,0,250
35982,1.032,0.052,-0.112,-3.48,1.18,3.76,-83.183,155.107,31.555,0,236
36003,1.044,0.052,-0.136,-1.25,2.02,2.3,-82.066,159.087,31.555,0,324
36024,1.024,0.048,-0.124,-2.99,1.18,3.69,-82.256,160.029,31.521,0,359
36045,1.032,0.048,-0.116,-4.38,1.11,3.83,-83.584,157.845,31.478,0,363
36066,1.036,0.04,-0.148,-0.07,0.9,3.41,-82.032,165.591,31.299,0,374
36087,1.036,0.028,-0.124,6.12,-0.97,1.67,-83.011,167.288,31.199,0,383
36108,1.048,0.056,-0.132,2.02,1.53,2.02,-82.215,157.023,31.232,0,371
36129,1.04,0.056,-0.108,0.07,0.49,2.5,-83.334,152.604,31.288,0,374
36150,1.04,0.04,-0.136,1.67,1.18,2.02,-82.244,163.623,31.288,0,371
36170,1.044,0.048,-0.132,1.46,1.88,1.81,-82.344,160.029,31.288,0,360
36192,1.04,0.048,-0.124,0.56,2.64,1.39,-82.483,164.757,31.288,0,337
36212,1.032,0.028,-0.144,2.92,3.41,1.25,-82.314,168.379,31.321,0,337
36234,1.028,0.032,-0.12,3.41,2.92,1.6,-82.483,164.757,31.31,0,337
36254,1.032,0.052,-0.132,1.81,3.41,2.57,-82.178,158.51,31.4,0,335
36276,1.032,0.044,-0.12,2.64,2.64,2.3,-82.946,159.875,31.5,0,335
36296,1.032,0.044,-0.128,2.64,2.57,2.71,-82.534,161.041,31.556,0,319
36318,1.04,0.052,-0.12,1.04,2.23,3.27,-82.839,156.583,31.625,0,313
36338,1.036,0.052,-0.116,0.7,2.16,3.48,-83.011,155.866,31.625,0,304
36360,1.036,0.056,-0.128,0.97,2.09,3.06,-83.011,155.866,31.625,0,310
36380,1.032,0.06,-0.112,1.04,1.32,3.48,-83.235,155.107,31.625,0,312
36402,1.032,0.036,-0.116,2.16,0.35,3.27,-83.294,162.771,31.625,0,324
36422,1.036,0.032,-0.128,2.3,0.49,4.17,-82.748,165.976,31.455,0,333
36444,1.04,0.032,-0.124,2.09,0.14,4.38,-82.986,165.542,31.49,0,335
36464,1.032,0.04,-0.124,0.97,0.21,4.03,-82.81,162.133,31.522,0,444
36485,1.036,0.048,-0.124,-1.39,-0.21,3.9,-82.692,158.85,31.366,0,140
36506,1.04,0.068,-0.076,-4.17,-1.6,4.73,-83.93,149.755,31.412,0,338
36527,1.04,0.052,-0.156,-0.35,0.49,4.52,-81.051,159.787,31.412,0,317
36548,1.024,0.052,-0.136,-4.31,1.25,5.22,-83.018,161.577,31.412,0,321
36569,1.036,0.028,-0.136,-7.37,1.04,5.15,-82.372,168.379,31.412,0,330
36590,1.024,0.012,-0.124,0.77,-0.77,5.63,-83.07,174.485,31.412,0,361
36611,1.04,0.02,-0.124,3.34,-1.18,4.31,-83.12,170.85,31.132,0,376
36632,1.048,0.044,-0.116,-2.71,1.04,3.62,-83.255,159.239,31.222,0,384
36653,1.044,0.012,-0.112,-1.67,1.74,3.13,-83.848,173.897,31.165,0,393
36674,1.044,0.008,-0.128,-0.42,1.74,3.41,-83.392,174.302,31.098,0,368
36695,1.044,0.02,-0.128,-1.18,1.95,4.31,-83.406,164.59,30.887,0,340
36716,1.032,0.036,-0.112,-0.42,2.23,4.59,-82.537,166.385,30.887,0,310
36737,1.028,0.024,-0.108,1.88,1.46,4.73,-83.864,167.484,30.887,0,293
36758,1.04,0.028,-0.128,2.09,2.09,4.66,-82.825,167.673,30.887,0,291
36779,1.028,0.024,-0.124,1.53,1.81,5.01,-83.002,169.058,30.887,0,312
36799,1.036,0.02,-0.136,1.46,1.95,4.73,-82.448,171.647,31.177,0,321
36820,1.036,0.044,-0.12,1.04,1.6,4.8,-82.973,159.875,30.853,0,320
36841,1.032,0.04,-0.12,0.14,1.95,4.38,-82.748,165.976,30.987,0,319
36862,1.028,0.024,-0.132,0.21,2.3,2.71,-83.084,163.313,30.898,0,304
36883,1.036,0.028,-0.12,2.09,1.53,1.67,-83.436,166.442,30.865,1,314
36904,1.044,0.024,-0.112,0.35,1.04,1.46,-83.745,167.918,30.865,1,309
36925,1.044,0.024,-0.108,0.42,0.97,2.23,-83.957,167.484,30.865,1,302
36946,1.032,0.036,-0.124,2.37,-0.49,1.88,-82.875,163.823,30.865,1,311
36967,1.036,0.032,-0.112,4.52,-1.32,0.28,-83.591,164.067,30.865,1,368
36988,1.028,0.036,-0.12,2.3,-1.32,-2.16,-83.147,160.986,30.866,1,289
37009,1.032,0.048,-0.112,-3.2,-0.21,-0.35,-84.602,153.446,31.065,1,221
37030,1.052,0.04,-0.092,-2.16,-0.21,0.97,-81.796,169.299,31.132,1,344
37051,1.032,0.036,-0.148,-0.7,1.32,2.57,-81.61,166.341,31.065,1,354
37071,1.032,0.056,-0.1,-5.57,-0.14,2.02,-83.669,150.762,30.954,1,350
37093,1.044,0.032,-0.144,-6.82,0.21,1.6,-81.964,167.484,30.954,1,349
37113,1.04,0.02,-0.12,3.83,-2.92,0.56,-83.334,170.55,30.954,1,358
37135,1.044,0.04,-0.136,0.97,-1.04,1.04,-82.273,163.623,30.954,1,364
37155,1.052,0.052,-0.112,-3.13,0.35,1.25,-83.406,158.564,30.954,1,392
37177,1.036,0.028,-0.136,0.49,0.49,1.32,-82.401,168.379,31.243,1,405
37197,1.036,0.036,-0.136,-1.53,0.63,1.74,-81.944,162.565,31.154,1,396
37219,1.04,0.044,-0.124,-3.97,0.35,1.88,-82.796,160.475,31.244,1,372
