Time,ax,ay,az,gx,gy ,gz ,r ,p,y,manual,heart
77,0.996,0.072,0.232,-9.32,-0.77,-6.4,-76.299,17.243,0,0,242
98,1.008,0.044,0.224,-12.87,0.97,-12.87,-77.245,11.114,35.96,0,314
118,0.996,0.032,0.24,-12.66,0.28,-18.85,-76.342,7.595,35.88,0,352
140,0.976,0.016,0.248,-9.6,-2.16,-21.63,-75.72,3.692,35.965,0,382
160,0.968,0.024,0.24,-10.09,-2.78,-18.85,-76.014,5.711,36.383,0,377
181,0.976,0.008,0.268,-1.46,-6.61,-17.46,-74.645,1.71,36.561,0,285
202,0.996,0.028,0.272,-2.99,-5.98,-16.9,-75.673,10.785,36.561,0,237
223,1.012,0.064,0.232,-10.92,-1.39,-16.83,-76.856,20.899,36.561,0,230
243,0.996,0.084,0.22,-14.68,-0.7,-16.14,-76.467,21.803,36.561,0,213
265,0.964,0.08,0.232,-12.87,-2.85,-15.37,-75.723,19.027,36.561,0,240
285,0.948,0.088,0.236,-11.97,-4.73,-12.8,-75.126,20.451,37.587,0,322
307,0.944,0.092,0.2,-15.03,-5.63,-9.46,-76.879,24.704,38.256,0,368
327,0.976,0.124,0.188,-13.22,-6.47,-6.12,-77.012,33.41,38.312,0,389
348,1.032,0.124,0.144,-1.32,3.97,-8.56,-79.572,40.735,38.375,0,400
369,1.052,0.148,0.268,1.46,9.81,-9.95,-70.852,22.622,38.466,0,292
390,1.04,0.116,0.336,-7.44,14.96,-8.56,-73.687,18.678,38.466,0,286
410,1,0.084,0.252,-15.03,13.77,-8,-74.338,14.445,38.466,0,388
432,0.936,0.068,0.276,-8.7,5.84,-11.62,-73.112,13.842,38.466,0,264
452,0.928,0.124,0.296,-2.5,-1.25,-13.29,-70.929,22.731,38.466,0,226
473,0.948,0.176,0.232,4.17,0.07,-9.53,-72.93,37.187,38.888,0,396
494,0.948,0.18,0.232,-4.45,4.24,-9.53,-72.795,37.809,39.581,0,440
515,0.944,0.124,0.212,-9.11,10.02,-13.63,-75.422,30.326,39.733,0,484
536,0.904,0.132,0.188,-10.16,12.45,-16.28,-73.635,35.642,40.059,0,501
557,0.896,0.168,0.24,-9.46,10.78,-15.79,-71.842,35.631,40.08,0,415
577,0.912,0.184,0.244,-6.82,9.81,-16.49,-72.341,38.907,40.08,0,369
599,0.92,0.156,0.24,-10.23,8.07,-18.64,-72.723,33.026,40.08,0,355
619,0.92,0.124,0.248,-7.72,4.73,-16.77,-73.233,26.567,40.08,0,340
640,0.904,0.168,0.244,-3.41,2.71,-12.17,-71.861,34.551,40.08,0,348
661,0.912,0.216,0.232,-4.66,3.69,-7.51,-70.839,42.958,40.85,0,419
681,0.928,0.196,0.268,-4.38,2.37,-4.52,-70.319,36.182,41.75,0,432
702,0.932,0.176,0.276,-3.69,1.95,-0.63,-70.653,32.527,42.091,0,443
723,0.94,0.192,0.26,-7.93,3.69,2.99,-72.076,37.617,42.106,0,456
744,0.98,0.192,0.252,-11.2,4.24,3.55,-70.992,36.472,42.207,0,390
764,0.996,0.196,0.256,-11.9,7.17,3.2,-72.464,38.323,42.207,0,339
786,0.98,0.212,0.264,-12.24,7.03,5.5,-70.945,38.768,42.207,0,324
806,0.956,0.232,0.264,-14.05,7.86,8.97,-69.82,41.312,42.207,0,301
827,0.928,0.264,0.244,-20.03,9.81,12.45,-68.83,47.258,42.207,0,315
848,0.928,0.248,0.244,-19.48,10.16,13.36,-69.454,45.469,42.202,0,462
869,0.936,0.204,0.26,-13.84,8.83,16.49,-70.558,38.121,41.635,0,533
890,0.952,0.192,0.276,-13.08,5.5,9.32,-70.238,31.306,41.489,0,583
911,0.972,0.164,0.304,-13.01,2.92,2.23,-69.959,26.567,41.085,0,622
931,0.944,0.148,0.328,-3.41,-0.56,-0.07,-67.576,23.597,40.883,0,637
952,0.904,0.144,0.368,-1.11,0.35,3.69,-66.393,21.372,40.831,0,593
973,0.904,0.152,0.368,0.63,0.28,4.59,-66.234,22.444,40.831,0,554
994,0.952,0.164,0.356,1.32,1.95,5.84,-67.627,24.736,40.831,0,495
1014,0.952,0.16,0.348,-0.83,3.76,7.23,-68.089,24.693,40.831,0,464
1036,0.932,0.116,0.34,6.33,1.46,5.22,-68.926,18.84,40.831,0,525
1056,0.92,0.116,0.348,9.25,0.56,3.41,-68.581,21.449,40.747,0,549
1077,0.912,0.156,0.308,10.02,1.25,6.05,-69.811,28.991,40.587,0,563
1098,0.924,0.164,0.288,9.74,1.6,6.61,-70.023,30.502,40.631,0,619
1119,0.924,0.176,0.28,7.3,-0.56,8.07,-70.312,32.155,40.835,0,630
1139,0.932,0.176,0.272,-0.63,-1.95,13.15,-70.837,32.908,40.83,0,302
1161,0.94,0.168,0.224,0.97,-4.31,14.26,-73.418,36.873,40.83,0,376
1181,0.972,0.176,0.24,-7.3,-3.83,17.46,-72.981,36.257,40.83,1,328
1202,1.012,0.128,0.244,-14.89,-1.46,14.4,-74.775,27.683,40.83,1,312
1223,1.004,0.092,0.228,-11.76,-1.95,11.97,-76.139,21.976,40.83,1,386
1244,0.988,0.08,0.256,-4.03,-6.68,10.43,-74.774,12.996,39.775,1,424
1265,0.972,0.052,0.26,-1.74,-5.08,8.28,-74.334,12.156,39.355,1,457
1286,0.968,0.056,0.252,-2.02,0.28,10.02,-75.073,12.53,39.353,1,491
1306,0.972,0.092,0.256,-2.78,3.34,9.18,-74.37,19.769,39.073,1,478
1328,0.972,0.104,0.264,-2.92,3.13,8.35,-73.732,21.503,39.079,1,390
1348,0.976,0.1,0.276,3.48,-1.25,4.17,-73.265,19.918,39.079,1,315
1369,0.976,0.1,0.292,6.89,-1.67,5.5,-72.456,18.906,39.079,1,242
1390,0.992,0.116,0.272,4.17,0.56,4.31,-73.407,23.099,39.079,1,196
1411,0.952,0.112,0.292,5.22,1.32,4.24,-72.917,21.658,39.079,1,264
1431,0.956,0.104,0.252,3.9,2.37,4.59,-72.421,22.219,38.776,1,320
1453,0.968,0.116,0.28,1.53,4.24,4.94,-74.003,24.378,38.813,1,353
1473,0.956,0.112,0.272,0.49,2.64,4.87,-72.903,22.382,38.753,1,365
1494,0.964,0.1,0.268,-0.9,0.9,4.03,-73.478,20.464,38.976,1,365
1515,0.964,0.1,0.28,-1.74,-0.97,4.59,-72.864,19.655,38.949,1,274
1536,0.968,0.1,0.28,-1.81,-1.18,4.38,-72.931,19.655,38.949,1,230
1556,0.968,0.108,0.28,-3.69,-0.07,5.22,-72.78,21.094,38.949,1,194
1577,0.968,0.088,0.284,-3.2,-0.07,5.22,-72.853,16.261,38.949,1,177
1598,0.96,0.088,0.288,-1.67,-0.42,4.73,-73.421,16.391,38.949,1,225
1618,0.944,0.092,0.272,-0.42,-0.63,4.17,-72.592,19.655,38.682,1,304
1640,0.944,0.1,0.276,-0.21,-0.56,3.34,-72.731,19.918,38.39,1,348
1660,0.956,0.092,0.276,-0.07,-0.28,2.43,-73.079,18.436,38.402,1,360
1681,0.952,0.088,0.272,0.28,-0.42,1.74,-73.291,17.929,38.375,1,362
1702,0.956,0.104,0.28,-0.14,0.21,1.25,-72.655,20.378,38.417,1,276
1723,0.952,0.104,0.272,-1.04,0.7,1.11,-72.997,20.926,38.417,1,277
1743,0.96,0.096,0.272,0.77,0.63,0.83,-73.282,19.441,38.417,1,254
1765,0.976,0.096,0.276,0.83,-0.14,-0.07,-72.864,19.655,38.417,1,79
1785,0.96,0.112,0.268,2.23,0.35,1.04,-75.35,23.684,38.417,1,215
1806,0.956,0.1,0.236,1.11,-0.56,2.09,-72.026,15.643,38.274,1,307
1827,0.956,0.092,0.264,0.28,0.49,0.28,-73.704,19.214,38.432,1,347
1848,0.952,0.116,0.252,-2.16,1.81,1.74,-73.759,24.719,38.482,1,385
1868,0.956,0.096,0.264,1.67,0.07,1.46,-73.63,19.985,38.395,1,401
1890,0.968,0.092,0.252,3.83,0.21,0.9,-74.515,20.058,38.381,1,325
1910,0.98,0.104,0.26,1.95,1.25,1.67,-74.059,21.803,38.381,1,293
1931,0.972,0.108,0.264,1.67,1.32,1.81,-73.152,23.406,38.381,1,277
1951,0.968,0.116,0.264,0.21,1.6,1.6,-73.487,24.046,38.381,1,265
1973,0.964,0.116,0.26,0.7,1.32,1.53,-73.725,22.559,38.381,1,251
1993,0.952,0.108,0.26,0.14,1.11,1.6,-73.531,22.559,38.41,1,311
2014,0.952,0.112,0.252,0.63,0.35,1.53,-73.851,23.964,38.716,1,330
2035,0.96,0.104,0.26,0.7,0.35,1.67,-73.744,21.803,38.712,1,350
2056,0.964,0.108,0.252,0.77,0.35,1.39,-74.129,23.2,38.546,1,361
2076,0.976,0.116,0.272,-0.9,2.16,1.25,-73.15,23.099,38.615,1,293
2098,0.968,0.116,0.252,-1.46,1.81,1.81,-74.014,24.719,38.615,1,250
2118,0.964,0.112,0.268,-0.7,1.46,1.74,-73.99,22.875,38.615,1,226
2139,0.968,0.112,0.252,0.14,1.6,1.88,-73.743,24.046,38.615,1,208
2160,0.976,0.116,0.256,-1.11,2.78,1.88,-73.367,25.161,38.615,1,198
2181,0.96,0.104,0.264,-0.28,3.13,1.67,-73.539,21.503,38.709,1,288
2201,0.96,0.1,0.26,0.9,2.99,1.39,-73.824,21.039,38.878,1,330
2223,0.956,0.104,0.264,0.97,2.78,1.39,-73.474,21.503,38.589,1,361
2243,0.964,0.092,0.252,1.95,3.76,3.69,-74.454,20.058,38.849,1,378
2264,0.96,0.104,0.272,3.48,1.53,2.3,-73.131,20.926,38.746,1,315
2285,0.952,0.12,0.272,1.39,2.78,3.13,-73.595,25.117,38.689,1,260
2306,0.96,0.12,0.264,0.97,2.23,2.78,-72.84,24.831,38.689,1,232
2326,0.96,0.12,0.264,2.23,1.39,2.5,-73.51,23.307,38.689,1,316
2348,0.964,0.12,0.272,3.41,1.25,2.37,-72.866,23.808,38.689,1,152
2368,0.96,0.108,0.272,2.09,1.04,2.64,-73.051,21.658,38.689,1,270
2388,0.952,0.108,0.228,4.24,0,2.78,-75.163,25.348,38.929,1,341
2410,0.948,0.096,0.304,3.83,-0.07,2.5,-71.418,17.527,38.99,1,387
2430,0.944,0.116,0.256,-2.3,0.77,3.06,-73.426,24.378,38.922,1,407
2451,0.952,0.124,0.264,-0.07,-0.07,3.48,-72.972,25.161,38.816,1,375
2471,0.956,0.108,0.264,4.59,-0.97,2.99,-73.595,25.117,38.767,1,315
2493,0.98,0.12,0.256,0.14,1.25,3.62,-72.497,26.567,38.767,1,294
2513,0.96,0.12,0.264,0.77,1.39,3.13,-73.064,24.123,38.767,1,289
2534,0.972,0.128,0.26,0,1.11,3.27,-73.404,26.213,38.767,1,283
2555,0.96,0.112,0.256,1.67,0.28,2.71,-73.777,23.631,38.767,1,341
2576,0.952,0.108,0.252,0.63,0.63,2.71,-73.94,23.2,38.732,1,381
2596,0.948,0.112,0.256,-0.42,0.83,2.85,-73.582,23.631,38.947,1,392
2618,0.956,0.12,0.256,0.21,0.83,3.27,-73.53,25.117,38.903,1,407
2638,0.96,0.104,0.252,1.67,0.35,2.85,-74.609,25.798,38.976,1,387
2659,0.976,0.12,0.28,-0.56,1.25,2.64,-72.17,20.986,38.832,1,304
2680,0.96,0.12,0.248,0.14,0.97,3.41,-73.368,27.648,38.832,1,271
2701,0.96,0.108,0.28,1.25,-0.42,3.34,-72.646,21.094,38.832,1,248
2721,0.988,0.112,0.26,0.63,0.49,4.59,-74.017,23.307,38.832,1,237
2743,0.956,0.112,0.252,0.83,0.35,3.76,-73.915,23.964,38.832,1,275
2763,0.956,0.108,0.248,0.97,-0.28,3.27,-74.207,23.534,38.836,1,335
2784,0.956,0.092,0.248,2.43,-0.97,2.37,-74.539,20.355,38.98,1,370
2805,0.944,0.112,0.248,1.18,-0.63,2.23,-73.563,24.719,38.945,1,404
2826,0.952,0.104,0.248,1.74,-0.56,2.64,-73.679,21.803,38.7,1,402
2846,0.96,0.108,0.26,2.71,-0.28,2.09,-74.003,23.2,38.96,1,310
2868,0.968,0.12,0.256,1.25,1.04,2.57,-73.724,25.117,38.96,1,272
2888,0.968,0.108,0.248,1.95,0.21,3.13,-74.393,23.534,38.96,1,256
2909,0.952,0.116,0.252,0.97,-0.42,2.09,-73.759,24.719,38.96,1,312
2930,0.94,0.116,0.244,1.74,0.14,3.06,-73.97,25.429,38.96,1,204
2951,0.96,0.112,0.26,2.64,0.83,2.78,-73.575,23.307,38.772,1,344
2971,0.956,0.124,0.208,-0.28,-0.07,3.69,-75.791,30.804,38.987,0,384
2993,0.968,0.092,0.26,-0.21,0.7,2.64,-74.162,25.429,38.808,0,398
3013,0.952,0.116,0.248,-3.83,0.42,4.24,-74.117,24.306,38.807,0,413
3034,0.956,0.112,0.248,-0.28,-1.04,3.9,-74.242,24.306,38.844,0,326
3055,0.968,0.112,0.244,-0.83,1.25,3.62,-74.504,24.658,38.844,0,288
3076,0.98,0.116,0.252,-2.57,2.43,4.66,-74.2,24.719,38.844,0,269
3096,0.984,0.116,0.256,-2.78,2.85,3.9,-74.065,24.378,38.844,0,257
3118,0.976,0.12,0.248,-2.64,2.37,2.85,-74.242,25.823,38.844,0,260
3138,0.952,0.108,0.244,-0.83,2.43,2.57,-74.348,23.877,38.731,0,340
3159,0.944,0.104,0.252,-0.35,2.37,2.64,-74.336,21.163,38.88,0,365
3180,0.948,0.112,0.256,-0.35,2.16,2.71,-74.003,23.2,38.644,0,372
3201,0.96,0.104,0.244,0.77,2.23,2.16,-74.937,24.592,38.694,0,381
3221,0.968,0.104,0.272,0.14,3.2,1.81,-73.262,20.926,38.501,0,302
3243,0.952,0.116,0.232,-1.32,2.37,1.39,-74.765,26.567,38.522,0,261
3263,0.96,0.104,0.284,2.16,0.21,1.74,-72.519,20.114,38.522,0,238
3283,0.98,0.108,0.24,2.23,0,1.88,-74.973,24.23,38.522,0,220
3304,0.988,0.124,0.26,1.53,1.74,1.95,-73.751,25.499,38.522,0,219
3325,0.972,0.108,0.248,1.25,1.6,1.67,-74.454,23.534,38.629,0,310
3346,0.976,0.104,0.26,1.39,2.09,1.32,-74.454,23.534,38.828,0,351
3366,0.96,0.108,0.248,0.35,2.3,1.81,-73.575,23.307,38.692,0,383
3388,0.96,0.116,0.248,1.32,1.6,1.88,-73.94,23.2,38.635,0,398
3408,0.964,0.128,0.256,1.39,1.32,2.43,-73.469,26.567,38.71,0,331
3429,0.968,0.12,0.256,0.56,2.37,2.64,-73.724,25.117,38.83,0,282
3450,0.956,0.12,0.256,-0.21,2.78,1.88,-73.53,25.117,38.83,0,263
3471,0.956,0.116,0.264,-0.21,2.78,2.16,-73.22,23.722,38.83,0,312
3491,0.956,0.124,0.264,0.42,2.5,2.37,-73.039,25.161,38.83,0,157
3513,0.96,0.12,0.264,0.97,1.53,2.16,-74.088,25.069,38.83,0,318
3533,0.952,0.124,0.216,-0.28,0.97,3.13,-72.998,24.123,38.787,0,367
3554,0.964,0.096,0.288,0.77,1.39,1.6,-74.5,20.856,39.008,0,394
3575,0.952,0.124,0.248,-3.13,2.78,3.41,-73.767,26.567,38.886,0,415
3596,0.964,0.12,0.264,-1.11,0.83,4.1,-73.263,24.446,38.966,0,379
3616,0.98,0.116,0.252,2.85,0.14,3.69,-74.2,24.719,38.707,0,318
3638,0.976,0.124,0.256,0.97,1.74,4.45,-73.757,25.846,38.707,0,293
3658,0.98,0.124,0.26,0.35,1.81,4.24,-73.626,25.499,38.707,0,280
3679,0.972,0.12,0.256,0.07,1.04,4.17,-73.787,25.117,38.707,0,274
3700,0.96,0.112,0.24,0.77,0.56,3.62,-74.319,24.658,38.707,0,335
3721,0.956,0.108,0.244,0.28,0.9,3.2,-73.735,22.875,38.629,0,362
3741,0.944,0.116,0.248,-0.9,1.53,3.76,-73.623,24.378,38.616,0,382
3763,0.968,0.104,0.228,1.04,0.83,3.97,-75.491,24.521,38.795,0,390
3783,0.972,0.112,0.276,-1.11,1.67,3.83,-72.968,22.089,38.988,0,374
3804,0.968,0.116,0.236,-1.81,2.02,3.97,-74.807,26.177,38.708,0,300
3825,0.972,0.108,0.268,0.14,0.35,3.69,-73.45,21.95,38.708,0,271
3846,0.968,0.116,0.248,0.35,0,3.97,-74.212,25.069,38.708,0,251
3866,0.984,0.124,0.256,-0.42,0.63,3.97,-73.735,23.722,38.708,0,238
3888,0.976,0.112,0.252,0.42,0.97,3.55,-74.541,21.646,38.708,0,294
3908,0.972,0.104,0.252,-0.07,1.11,3.27,-74.56,20.856,38.473,0,351
3929,0.96,0.104,0.252,-0.28,0.35,3.27,-74.152,22.428,38.466,0,385
3950,0.956,0.096,0.252,-0.07,-0.49,3.62,-74.253,20.856,38.487,0,414
3971,0.96,0.1,0.248,1.25,-1.11,3.69,-74.441,21.962,38.43,0,409
3991,0.964,0.112,0.248,1.53,-1.18,3.69,-74.242,24.306,38.451,0,317
4013,0.976,0.108,0.248,0.97,-0.21,3.27,-74.515,23.534,38.451,0,280
4033,0.968,0.112,0.248,-1.32,1.18,3.41,-74.15,25.069,38.451,0,283
4054,0.968,0.104,0.252,-0.56,0.83,3.06,-74.011,22.111,38.451,0,266
4075,0.968,0.1,0.256,-0.07,0.77,2.78,-73.81,20.748,38.451,0,171
4096,0.968,0.1,0.26,2.43,0.63,2.02,-75.582,23.684,38.595,0,351
4116,0.96,0.108,0.256,-0.21,0.35,2.85,-73.864,22.875,38.544,0,391
4137,0.964,0.088,0.248,0.56,0.49,1.39,-74.737,19.538,38.602,0,415
4158,0.956,0.12,0.22,-4.38,3.9,2.78,-75.317,28.613,38.465,0,428
4178,0.968,0.108,0.256,0.9,0.07,2.5,-73.99,22.875,38.444,0,344
4199,0.972,0.1,0.244,2.16,0,2.02,-74.827,22.287,38.444,0,307
4220,0.98,0.112,0.256,0.63,1.88,2.3,-73.931,24.046,38.444,0,293
4241,0.984,0.116,0.256,-0.14,2.23,1.95,-74.547,24.306,38.444,0,287
4261,0.98,0.108,0.248,0.56,1.39,1.88,-74.242,24.306,38.444,0,297
4283,0.956,0.112,0.244,0.9,0.97,2.02,-74.319,24.658,38.43,0,369
4303,0.96,0.112,0.244,0.14,1.11,2.3,-74.381,24.658,38.481,0,384
4324,0.96,0.104,0.256,-0.14,1.53,2.16,-73.948,22.111,38.529,0,390
4345,0.972,0.108,0.236,0.56,2.02,2.3,-75.056,24.592,38.637,0,399
4366,0.98,0.112,0.26,-0.83,4.17,2.02,-73.893,23.307,38.699,0,323
4386,0.964,0.116,0.236,-1.39,3.9,2.57,-74.129,23.2,38.699,0,285
4408,0.968,0.104,0.252,-0.28,3.2,2.57,-74.393,23.534,38.699,0,262
4428,0.968,0.112,0.24,-0.77,2.78,2.57,-73.923,27.302,38.699,0,248
4449,0.972,0.112,0.256,-1.39,3.2,2.71,-73.967,23.631,38.699,0,239
4470,0.972,0.1,0.252,-1.25,3.83,3.06,-74.42,21.646,38.578,0,330
4491,0.968,0.1,0.248,-0.28,3.69,2.92,-74.563,21.962,38.544,0,367
4511,0.964,0.104,0.252,-0.21,3.27,2.85,-74.215,22.428,38.607,0,392
4533,0.956,0.108,0.248,0.49,2.71,3.13,-74.207,23.534,38.552,0,403
4553,0.968,0.116,0.248,1.74,2.16,3.13,-74.212,25.069,38.602,0,350
4574,0.976,0.112,0.256,0.9,2.09,3.13,-74.076,24.719,38.681,0,296
4595,0.964,0.112,0.252,0.42,2.85,2.99,-73.951,24.719,38.681,0,262
4616,0.968,0.108,0.248,0.63,2.57,3.83,-73.99,22.875,38.681,0,248
4636,0.964,0.116,0.256,-0.14,2.37,4.31,-73.751,24.378,38.681,0,292
4658,0.976,0.104,0.252,0.56,2.57,2.64,-74.399,22.428,38.681,0,288
4678,0.956,0.104,0.256,0.63,2.57,3.27,-73.884,22.111,38.644,0,277
4699,0.956,0.1,0.224,2.71,2.78,2.5,-75.614,24.059,38.516,0,396
4720,0.964,0.108,0.256,-1.74,2.16,3.27,-73.927,22.875,38.488,0,424
4741,0.972,0.092,0.268,0.14,2.43,2.37,-74.18,24.306,38.629,0,380
4761,0.94,0.128,0.24,-2.43,4.66,4.52,-73.003,27.982,38.551,0,324
4783,0.976,0.116,0.26,1.81,1.95,2.43,-74.1,22.559,38.551,0,298
4803,0.976,0.1,0.256,2.16,2.99,2.85,-74.278,21.338,38.551,0,286
4824,0.984,0.108,0.264,0.97,4.52,2.71,-73.84,22.251,38.551,0,287
4845,0.968,0.104,0.26,0,4.38,2.57,-73.871,21.803,38.551,0,370
4866,0.956,0.108,0.256,0.21,3.62,2.71,-73.8,22.875,38.559,0,418
4886,0.944,0.104,0.252,2.02,1.6,3.76,-73.897,22.428,38.666,0,430
4908,0.94,0.096,0.26,1.18,2.43,3.27,-73.577,20.267,38.824,0,423
4928,0.976,0.108,0.268,-0.56,2.78,2.16,-73.567,22.99,38.711,0,380
4948,0.96,0.108,0.26,1.95,1.6,3.13,-72.78,21.094,38.717,0,302
4970,0.968,0.116,0.272,-1.39,2.78,3.27,-73.967,23.631,38.717,0,272
4990,0.964,0.116,0.272,-1.32,0.49,3.69,-72.952,23.099,38.717,0,252
5011,0.964,0.108,0.26,2.43,-1.04,3.2,-73.725,22.559,38.717,0,240
5032,0.968,0.104,0.264,0.63,-0.49,2.71,-73.668,21.503,38.717,0,297
5053,0.972,0.104,0.256,-0.83,0.9,2.57,-74.136,22.111,38.589,0,347
5073,0.964,0.1,0.264,0.63,1.32,2.37,-73.683,20.748,38.474,0,375
5095,0.972,0.092,0.256,0.7,1.32,2.16,-74.297,21.646,38.654,0,395
5115,0.96,0.1,0.256,-0.07,1.95,2.43,-73.575,23.307,38.681,0,388
5136,0.952,0.104,0.256,0.35,1.74,2.23,-73.915,23.964,38.811,0,301
5157,0.956,0.108,0.26,0.97,1.6,2.92,-73.596,22.559,38.811,0,283
5178,0.96,0.108,0.264,1.46,0.9,2.64,-73.458,22.251,38.811,0,255
5198,0.964,0.12,0.26,0.49,1.88,2.78,-73.461,24.777,38.811,0,236
5220,0.96,0.108,0.256,-0.56,1.74,2.99,-73.864,22.875,38.811,0,276
5240,0.96,0.1,0.252,0.07,0.56,3.34,-74.235,21.646,38.769,0,405
5261,0.956,0.104,0.264,0.97,-0.07,3.34,-73.838,21.338,38.745,0,339
5282,0.952,0.1,0.268,0.77,-0.28,3.55,-73.249,21.658,38.675,0,313
5303,0.98,0.1,0.252,4.52,-0.21,2.64,-76.365,27.85,38.452,0,413
5323,0.976,0.116,0.244,-1.04,-0.35,3.62,-73.135,19.918,38.546,0,332
5345,0.968,0.096,0.272,-0.28,0.21,2.43,-73.412,19.441,38.546,0,298
5365,0.952,0.136,0.248,-2.43,2.3,3.55,-73.459,28.742,38.546,0,278
5386,0.968,0.108,0.26,3.2,-0.7,3.06,-73.789,22.559,38.546,0,269
5407,0.972,0.096,0.252,3.76,0.07,2.16,-74.5,20.856,38.546,0,295
5428,0.964,0.104,0.256,0.56,2.3,2.78,-74.011,22.111,38.645,0,385
5448,0.956,0.104,0.256,1.67,2.02,2.3,-74.479,22.753,38.479,0,433
5470,0.976,0.108,0.256,1.18,1.53,2.09,-74.228,23.964,38.616,0,457
5490,0.96,0.108,0.252,2.3,0.77,2.99,-73.902,21.338,38.696,0,454
5511,0.964,0.108,0.26,2.37,0.63,2.85,-73.725,22.559,38.652,0,341
5531,0.968,0.112,0.264,1.11,1.46,2.78,-73.503,22.99,38.652,0,279
5553,0.976,0.112,0.264,1.39,1.67,2.64,-73.631,22.99,38.652,0,248
5573,0.972,0.112,0.236,0.49,3.27,2.85,-74.963,25.39,38.652,0,236
5595,0.964,0.12,0.276,0.7,1.39,3.55,-72.667,23.5,38.652,0,238
5615,0.956,0.1,0.252,2.09,-0.07,3.9,-74.285,23.877,38.602,0,327
5636,0.948,0.108,0.252,0.97,0.35,3.62,-74.515,23.534,38.471,0,365
5656,0.984,0.108,0.256,-1.53,1.32,3.34,-74.259,22.111,38.601,0,384
5678,0.96,0.096,0.26,0.97,0.7,3.2,-73.902,20.267,38.429,0,400
5698,0.972,0.112,0.26,-0.21,0.42,3.62,-73.767,23.307,38.646,0,327
5719,0.964,0.112,0.26,-1.6,0.7,3.69,-73.64,23.307,38.696,0,284
5740,0.96,0.112,0.256,1.18,-1.04,4.31,-73.777,23.631,38.696,0,257
5761,0.968,0.104,0.26,1.04,-0.56,4.31,-73.871,21.803,38.696,0,253
5781,0.984,0.108,0.256,0.77,-0.14,3.27,-74.238,22.875,38.696,0,235
5803,0.956,0.1,0.26,0.35,0.14,3.06,-74.441,21.962,38.688,0,318
5823,0.964,0.104,0.24,0,0.9,3.06,-74.849,21.478,38.379,0,356
5843,0.972,0.096,0.248,0.42,0.83,2.64,-74.583,21.163,38.421,0,491
5865,0.96,0.096,0.252,1.6,0.35,2.43,-74.315,20.856,38.479,0,332
5885,0.964,0.108,0.26,-0.21,-0.07,2.99,-73.725,22.559,38.351,0,289
5906,0.964,0.108,0.212,2.09,0.14,3.13,-76.142,26.998,38.415,0,304
5927,0.98,0.096,0.256,0.14,-0.07,3.62,-74.417,20.558,38.415,0,280
5948,0.968,0.1,0.264,-1.11,0.63,2.85,-73.747,20.748,38.415,0,264
5968,0.956,0.128,0.24,-0.83,1.04,3.97,-73.566,25.846,38.415,0,258
5990,0.964,0.104,0.252,2.57,-1.39,3.48,-74.515,20.058,38.415,0,342
6010,0.972,0.092,0.252,4.03,-1.67,2.09,-74.696,20.058,38.436,0,393
6031,0.956,0.108,0.248,1.74,0.49,3.2,-74.207,23.534,38.359,0,437
6052,0.98,0.096,0.24,2.43,0.42,2.37,-75.23,21.803,38.492,0,468
6073,0.984,0.112,0.248,2.09,0.77,2.37,-74.547,24.306,38.436,0,433
6093,0.964,0.116,0.248,1.95,1.11,2.99,-74.15,25.069,38.223,0,340
6115,0.96,0.112,0.252,1.88,0.97,2.85,-73.978,23.964,38.223,0,276
6135,0.972,0.112,0.248,1.32,2.23,2.71,-74.366,24.306,38.223,0,238
6156,0.972,0.116,0.26,0.63,2.23,3.06,-73.59,24.777,38.223,0,223
6177,0.968,0.104,0.236,1.53,3.41,3.06,-75.375,24.521,38.223,0,294
6198,0.964,0.096,0.252,0.7,2.37,3.34,-74.155,21.338,38.4,0,346
6218,0.956,0.1,0.248,0.97,1.74,2.78,-74.379,21.962,38.429,0,377
6240,0.956,0.108,0.248,1.46,0.9,2.92,-74.207,23.534,38.351,0,398
6260,0.976,0.108,0.252,0.77,1.53,3.34,-74.315,23.2,38.486,0,377
6281,0.992,0.116,0.252,-1.32,2.5,2.99,-74.382,24.719,38.612,0,300
6302,0.976,0.104,0.252,0.49,1.67,2.92,-74.399,22.428,38.612,0,266
6323,0.968,0.108,0.248,0.7,1.46,3.41,-74.212,25.069,38.612,0,249
6343,0.972,0.108,0.248,1.04,1.46,3.13,-74.366,24.306,38.612,0,241
6365,0.964,0.104,0.252,1.18,1.39,3.69,-74.479,22.753,38.612,0,301
6385,0.96,0.1,0.248,1.04,1.32,3.27,-74.441,21.962,38.443,0,344
6406,0.96,0.1,0.24,1.18,1.6,3.2,-74.851,22.622,38.415,0,376
6427,0.968,0.104,0.244,-0.07,2.16,3.2,-74.682,23.087,38.393,0,399
6448,0.96,0.1,0.24,-0.28,2.16,3.13,-74.851,22.622,38.337,0,544
6468,0.976,0.104,0.256,-0.21,1.25,3.13,-74.198,22.111,38.472,0,205
6490,0.972,0.12,0.272,-2.16,1.32,3.48,-72.999,23.808,38.472,0,253
6510,0.988,0.108,0.216,1.25,1.81,3.69,-75.364,28.97,38.472,0,260
6531,0.972,0.108,0.252,-2.09,3.34,2.78,-74.278,21.338,38.472,0,253
6552,0.972,0.1,0.264,-2.02,4.31,2.09,-74.997,22.965,38.472,0,283
6573,0.964,0.108,0.244,0.9,2.71,2.92,-74.534,23.877,38.522,0,363
6593,0.964,0.08,0.244,2.71,0.63,2.02,-75.09,18.154,38.33,0,403
6615,0.964,0.092,0.256,2.78,-0.07,1.46,-74.247,19.769,38.251,0,440
6635,0.972,0.096,0.244,1.67,2.64,1.6,-74.909,21.478,38.266,0,469
6656,0.976,0.108,0.256,1.25,2.57,1.81,-74.115,22.875,38.421,1,393
6677,0.972,0.108,0.252,1.67,2.57,2.16,-74.212,25.069,38.421,1,354
6697,0.964,0.112,0.256,1.81,2.5,2.37,-73.64,23.307,38.421,1,302
6718,0.96,0.116,0.256,0.83,2.78,3.13,-73.967,23.631,38.421,1,260
6739,0.964,0.1,0.244,1.04,3.41,2.85,-74.707,22.287,38.421,1,253
6760,0.96,0.104,0.264,1.39,3.62,2.64,-73.539,21.503,38.607,1,338
6780,0.956,0.108,0.24,-0.07,3.55,3.48,-74.614,24.23,38.4,1,380
6802,0.956,0.096,0.26,-0.28,1.11,3.27,-73.838,20.267,38.55,1,404
6822,0.96,0.096,0.256,1.53,-0.21,2.43,-74.109,20.558,38.543,1,418
6843,0.976,0.116,0.26,-0.7,1.46,1.95,-73.521,24.446,38.551,1,336
6864,0.984,0.124,0.264,-2.92,2.5,2.64,-73.648,24.446,38.551,1,294
6885,0.98,0.116,0.276,-3.34,2.78,3.06,-73.314,21.658,38.551,1,266
6905,0.968,0.1,0.268,-2.92,1.67,2.85,-73.543,20.464,38.551,1,247
6927,0.964,0.104,0.26,-2.85,1.81,3.2,-73.808,21.803,38.551,1,242
6947,0.956,0.096,0.252,-0.97,0.56,2.99,-74.253,20.856,38.501,1,333
6968,0.952,0.1,0.248,-1.11,0.35,2.92,-74.316,21.962,38.28,1,381
6989,0.96,0.104,0.264,-0.9,0.14,2.37,-73.539,21.503,38.508,1,391
7010,0.964,0.104,0.248,-0.9,0.9,2.5,-74.418,22.753,38.444,1,406
7030,0.968,0.116,0.244,-2.3,1.25,2.5,-74.166,23.964,38.351,1,337
7052,0.964,0.108,0.244,-1.95,0.35,2.3,-74.454,23.534,38.386,1,430
7072,0.976,0.104,0.252,0.56,-0.7,2.16,-74.176,22.875,38.386,1,171
7093,0.972,0.108,0.268,-0.63,-0.97,2.09,-73.45,21.95,38.386,1,216
7114,0.976,0.112,0.204,-0.63,1.6,2.09,-76.594,28.77,38.386,1,242
7135,0.976,0.084,0.264,-1.04,0.97,2.02,-74.159,17.651,38.393,1,330
7155,0.956,0.1,0.256,-3.41,1.53,1.95,-73.966,21.338,38.309,1,378
7177,0.952,0.112,0.232,-0.97,0.83,2.99,-74.863,25.771,38.359,1,413
7197,0.968,0.092,0.248,2.3,-0.77,1.81,-75.478,20.451,38.559,1,435
7218,0.976,0.1,0.24,2.09,0.49,1.53,-74.973,24.23,38.287,1,398
7239,0.984,0.112,0.252,-0.77,2.5,1.95,-74.003,24.378,38.458,1,353
7260,0.98,0.108,0.256,-0.9,2.99,1.81,-74.176,22.875,38.458,1,327
7280,0.972,0.108,0.244,-0.63,2.23,2.09,-74.655,23.877,38.458,1,299
7302,0.96,0.112,0.248,0.28,1.18,2.43,-74.18,24.306,38.458,1,266
7322,0.956,0.108,0.256,1.25,1.25,2.23,-73.8,22.875,38.458,1,312
7343,0.956,0.108,0.24,-0.83,2.64,2.43,-74.614,24.23,38.302,1,341
7364,0.964,0.104,0.252,-1.88,4.52,2.5,-75.32,23.319,38.358,1,368
7385,0.96,0.1,0.24,-1.53,5.7,2.71,-74.379,21.962,38.557,1,391
7405,0.968,0.104,0.244,-1.18,6.96,2.71,-74.565,24.658,38.486,1,357
7427,0.964,0.116,0.256,-1.74,6.05,2.43,-73.523,22.251,38.394,1,293
7447,0.968,0.112,0.26,-2.16,4.66,2.57,-73.704,23.307,38.394,1,262
7468,0.972,0.104,0.264,-0.42,3.76,2.16,-73.732,21.503,38.394,1,242
7489,0.976,0.108,0.268,-1.32,3.55,2.37,-73.514,21.95,38.394,1,231
7510,0.96,0.104,0.26,-0.7,3.2,2.5,-73.744,21.803,38.394,1,292
7530,0.956,0.104,0.256,0,2.3,2.5,-73.884,22.111,38.43,1,357
7552,0.964,0.104,0.264,0.49,1.95,2.99,-74.011,22.111,38.509,1,378
7572,0.96,0.104,0.256,-0.7,3.06,2.78,-73.966,21.338,38.616,1,388
7592,0.956,0.108,0.252,-3.06,3.62,3.13,-73.951,24.719,38.609,1,384
7614,0.96,0.116,0.248,-6.47,3.13,2.64,-74.088,25.069,38.48,1,369
7634,0.964,0.112,0.252,-10.37,2.64,2.5,-74.041,23.964,38.48,1,236
7655,0.944,0.124,0.256,-11.83,1.32,4.03,-73.237,25.846,38.48,1,152
7676,0.952,0.132,0.268,-8.7,-1.25,4.1,-72.583,26.224,38.48,1,239
7697,0.952,0.108,0.276,-5.63,-2.3,4.52,-72.713,21.372,38.48,1,289
7717,0.976,0.092,0.268,-6.54,0.83,3.55,-74.028,20.267,38.138,1,357
7739,0.976,0.096,0.26,-3.69,2.09,3.34,-74.552,17.104,38.268,1,397
7759,0.988,0.076,0.272,0.49,1.39,1.74,-73.955,13.842,38.059,1,416
7780,0.972,0.08,0.26,0.42,3.76,2.37,-74.37,17.104,38.261,1,434
7801,0.96,0.092,0.268,1.04,4.1,3.06,-73.561,18.948,38.037,1,355
7822,0.988,0.096,0.272,2.23,3.69,2.78,-73.73,19.441,38.037,1,316
7842,0.96,0.092,0.264,4.1,1.81,2.85,-73.769,19.214,38.037,1,291
7864,0.952,0.096,0.256,4.87,0.77,2.57,-73.982,20.558,38.037,1,255
7884,0.956,0.096,0.26,4.59,1.11,3.41,-73.838,20.267,38.037,1,252
7905,0.96,0.08,0.26,8.28,0.83,4.24,-74.612,16.784,38.21,1,319
7926,0.96,0.076,0.264,5.36,0.9,5.01,-72.921,15.733,38.059,1,356
7947,0.96,0.076,0.268,4.94,2.23,5.36,-74.825,17.039,37.951,1,370
7967,0.952,0.072,0.26,7.17,0.35,5.84,-74.183,15.48,38.296,1,383
7988,0.976,0.084,0.268,6.19,-0.14,5.98,-73.952,17.404,38.332,1,301
8009,0.992,0.088,0.264,5.84,2.09,9.67,-74.335,18.436,38.332,1,268
8030,0.944,0.092,0.264,5.98,-1.18,7.3,-73.508,19.214,38.332,1,247
8050,0.964,0.08,0.264,9.11,0.07,8.9,-74.037,16.86,38.332,1,234
8072,0.976,0.092,0.264,5.77,-0.28,8.49,-74.034,17.651,38.332,1,218
8092,0.956,0.084,0.26,4.66,-0.14,9.39,-73.711,18.436,38.303,1,300
8113,0.948,0.092,0.256,3.9,-1.18,7.03,-74.109,21.646,37.88,1,297
8134,0.948,0.104,0.26,2.64,0.83,7.65,-73.549,21.803,37.874,1,336
8155,0.956,0.1,0.244,2.43,-0.77,6.82,-74.585,22.287,37.724,1,384
8175,0.976,0.124,0.244,-0.77,0.14,6.96,-74.34,26.942,37.724,1,343
8197,0.96,0.104,0.264,4.1,-0.63,4.17,-73.539,21.503,37.681,1,136
8217,0.976,0.096,0.26,7.44,-1.46,-1.04,-74.152,20.267,37.681,1,230
8238,0.976,0.084,0.22,5.43,-1.04,-4.73,-76.44,20.899,37.681,1,201
8259,0.984,0.052,0.272,3.2,0.21,-6.26,-75.508,11.843,37.681,1,194
8280,0.948,0.068,0.248,4.66,-1.11,-3.27,-75.377,16.7,37.594,1,288
8300,0.98,0.068,0.24,2.64,0.35,3.55,-74.764,15.71,38.016,1,336
8322,0.964,0.076,0.232,7.3,-1.25,0.14,-75.794,18.139,38.031,1,362
8342,0.956,0.108,0.248,2.23,0.63,-0.49,-74.207,23.534,38.138,1,377
8363,0.976,0.116,0.248,-0.28,1.39,0.49,-74.336,25.069,38.017,1,335
8384,0.96,0.116,0.252,2.3,-0.63,0.83,-73.887,24.719,38.088,1,305
8404,0.964,0.124,0.244,-1.88,0.42,1.6,-74.155,26.942,38.088,1,266
8425,0.968,0.108,0.244,-0.56,-0.63,1.74,-74.171,20.558,38.088,1,245
8446,0.956,0.096,0.252,2.64,-2.23,2.92,-73.335,21.211,38.088,1,234
8467,0.968,0.096,0.236,2.02,-0.42,3.13,-75.03,22.622,38.088,1,324
8487,0.964,0.092,0.26,-1.39,0.28,3.76,-74.04,19.488,38.067,1,363
8509,0.964,0.108,0.24,-3.41,0.07,2.71,-74.735,24.23,38.209,1,403
8529,0.952,0.092,0.264,1.04,-1.46,1.95,-73.64,19.214,38.237,1,427
8550,0.992,0.108,0.256,-2.78,-0.07,2.43,-74.358,22.875,38.23,1,402
8571,0.948,0.112,0.26,-2.57,-1.39,1.25,-73.378,23.307,38.272,1,337
8592,0.968,0.112,0.24,-0.97,-1.67,0.83,-74.937,24.592,38.272,1,307
8612,0.952,0.112,0.232,0.21,-1.67,0.21,-75.224,27.38,38.272,1,296
8634,0.964,0.12,0.232,-0.21,0.63,3.27,-74.977,21.962,38.272,1,278
8654,0.948,0.096,0.248,1.39,-1.18,-2.23,-74.336,21.163,38.272,1,337
8675,0.964,0.096,0.232,-2.71,0.63,-1.32,-75.407,22.481,38.458,1,403
8696,0.956,0.092,0.24,-0.14,-0.42,-0.77,-74.957,20.975,38.145,1,441
8717,0.952,0.108,0.228,-1.04,0.42,0.83,-75.163,25.348,38.315,1,522
8738,0.968,0.104,0.228,-0.14,0.35,1.25,-75.491,24.521,38.259,1,361
8759,0.98,0.12,0.244,1.39,0.28,1.25,-74.498,26.19,38.265,0,357
8779,0.98,0.124,0.196,1.04,0.07,1.95,-73.431,25.161,38.265,1,322
8800,0.996,0.104,0.272,-2.85,1.88,0.97,-75.837,26.567,38.265,0,288
8821,0.968,0.12,0.228,-1.74,1.18,4.1,-75.159,27.761,38.265,0,271
8842,0.972,0.1,0.232,3.13,-1.67,4.03,-75.436,23.319,38.265,0,315
8863,0.98,0.1,0.232,2.92,0.28,3.13,-75.55,23.319,38.23,0,380
8884,0.984,0.104,0.228,-0.9,1.95,3.69,-75.718,24.521,38.442,0,418
8904,0.98,0.1,0.232,-1.81,2.23,2.64,-75.55,23.319,38.428,0,439
8926,0.96,0.108,0.228,-0.83,1.74,2.5,-75.281,25.348,38.364,0,447
8946,0.964,0.116,0.24,0.42,1.39,3.27,-75.243,26.163,38.57,0,347
8967,0.968,0.104,0.236,-0.21,1.88,3.27,-74.472,25.429,38.57,0,298
8988,0.972,0.116,0.244,0.49,1.95,3.97,-74.946,26.954,38.57,0,259
9009,0.968,0.116,0.26,-0.77,2.78,3.2,-73.616,24.046,38.57,0,231
9029,0.964,0.1,0.228,-1.11,2.5,3.06,-75.525,23.684,38.57,0,266
9051,0.968,0.092,0.264,1.39,0.14,3.62,-73.896,19.214,38.429,0,345
9071,0.964,0.1,0.232,2.37,-0.28,4.45,-75.32,23.319,38.401,0,385
9092,0.98,0.1,0.236,-1.04,2.02,3.27,-75.349,22.965,38.421,0,430
9113,0.952,0.096,0.24,5.84,0.35,2.92,-76.032,21.976,38.35,0,457
9134,0.996,0.124,0.244,-1.39,2.71,3.13,-74.427,24.306,38.265,0,361
9154,0.972,0.1,0.24,0.56,1.46,2.37,-74.843,25.39,38.265,0,321
9176,0.964,0.112,0.236,2.78,-0.35,3.34,-74.843,25.39,38.265,0,285
9196,0.968,0.116,0.24,2.09,0.28,4.8,-74.609,25.798,38.265,0,260
9217,0.976,0.096,0.228,2.23,0.14,5.5,-75.782,22.835,38.265,0,266
9238,0.972,0.112,0.236,4.17,0.14,4.03,-74.963,25.39,38.265,0,360
9259,0.968,0.108,0.228,2.78,1.25,3.62,-75.398,25.348,38.35,0,457
9279,0.956,0.088,0.236,5.63,0.35,3.34,-75.246,20.451,38.088,0,332
9300,0.972,0.104,0.24,1.6,1.53,6.75,-75.116,22.965,38.329,0,439
9321,0.972,0.108,0.196,6.26,-1.6,2.02,-74.861,23.087,38.215,0,361
9341,0.98,0.096,0.264,3.06,0.21,2.43,-75.587,26.163,38.215,0,306
9363,0.968,0.12,0.216,-0.07,1.74,3.83,-75.686,29.057,38.215,0,285
9383,0.976,0.1,0.232,2.3,0.28,3.2,-75.493,23.319,38.215,0,271
9404,0.988,0.104,0.232,3.41,0.21,1.88,-75.575,24.147,38.215,0,269
9425,0.976,0.104,0.24,2.09,1.32,2.37,-75.003,23.43,38.194,0,362
9446,0.98,0.104,0.228,1.11,2.16,3.34,-75.662,24.521,38.37,0,408
9466,0.976,0.096,0.228,1.32,1.74,3.06,-75.549,24.521,38.334,0,437
9488,0.964,0.096,0.22,3.13,1.04,3.13,-75.838,25.303,38.413,0,441
9508,0.972,0.112,0.22,2.09,1.25,2.99,-74.921,28.126,38.314,0,355
9529,0.98,0.12,0.212,1.74,2.5,2.99,-76.046,29.514,38.349,0,289
9550,0.988,0.116,0.252,0.35,2.85,3.2,-74.321,24.719,38.349,0,255
9571,0.98,0.104,0.22,2.3,2.57,3.55,-76.061,25.303,38.349,0,227
9591,0.96,0.112,0.244,-0.49,2.57,1.88,-74.381,24.658,38.349,0,223
9613,0.964,0.116,0.216,-0.56,3.13,2.02,-75.736,28.24,38.356,0,314
9633,0.98,0.104,0.236,0,3.2,2.78,-75.262,23.784,38.554,0,356
9654,0.972,0.096,0.228,0,4.03,2.85,-75.407,22.481,38.499,0,391
9674,0.972,0.096,0.236,1.39,4.17,3.41,-75.047,20.66,38.364,0,408
9696,0.98,0.104,0.24,0.07,4.31,3.13,-74.625,24.658,38.406,0,358
9716,0.968,0.116,0.236,1.25,3.62,2.85,-74.807,26.177,38.433,0,291
9737,0.964,0.116,0.236,0.9,3.34,2.43,-74.747,26.177,38.433,0,260
9758,0.964,0.112,0.244,0.42,3.13,2.43,-74.443,24.658,38.433,0,237
9779,0.968,0.104,0.24,1.46,2.92,2.02,-74.885,23.43,38.433,0,233
9799,0.968,0.104,0.232,0.07,3.76,3.13,-75.289,24.147,38.433,0,319
9821,0.972,0.1,0.232,0.14,3.27,3.48,-74.73,22.622,38.406,0,459
9841,0.98,0.104,0.232,2.16,3.76,2.92,-75.349,22.965,38.441,0,292
9862,0.972,0.104,0.248,1.11,3.13,2.85,-74.715,23.877,38.577,0,425
9883,0.968,0.116,0.212,2.43,3.62,2.5,-75.988,28.688,38.463,0,394
9904,0.984,0.1,0.248,0.35,3.55,1.53,-74.803,21.962,38.583,0,318
9924,0.96,0.12,0.224,-2.85,5.36,2.64,-75.179,28.181,38.583,0,291
9946,0.968,0.116,0.232,1.53,3.2,1.81,-75.005,26.567,38.583,0,278
9966,0.976,0.104,0.236,3.69,2.43,0.07,-75.204,23.784,38.583,0,269
9987,0.972,0.1,0.236,-0.77,5.08,0.83,-74.443,24.658,38.583,0,341
10008,0.964,0.108,0.248,5.22,2.16,0.49,-75.154,20.138,38.399,0,400
10029,0.968,0.108,0.236,-1.81,4.52,2.5,-74.413,27.326,38.442,0,442
10050,0.96,0.104,0.236,3.27,1.74,2.3,-74.968,23.784,38.753,0,461
10071,0.964,0.112,0.244,3.69,1.11,1.25,-74.443,24.658,38.833,0,427
10091,0.964,0.116,0.244,3.76,2.71,3.76,-74.349,25.429,38.711,0,317
10113,0.968,0.116,0.26,0.07,3.55,5.7,-73.616,24.046,38.711,0,273
10133,0.984,0.124,0.232,1.88,3.83,1.81,-75.038,28.126,38.711,0,252
10155,0.96,0.12,0.248,2.09,2.02,2.37,-73.951,24.719,38.711,0,236
10175,0.964,0.108,0.248,2.37,1.67,2.16,-74.274,25.069,38.711,0,285
10195,0.968,0.12,0.244,1.18,1.95,2.43,-74.274,25.069,38.725,0,345
10217,0.968,0.116,0.248,0.7,2.99,2.57,-74.212,25.069,38.922,0,368
10237,0.968,0.108,0.248,-0.07,3.69,2.99,-74.393,23.534,38.927,0,379
10258,0.956,0.108,0.244,0.97,3.34,4.87,-74.41,23.877,38.854,0,366
10279,0.936,0.116,0.248,1.6,1.95,3.97,-73.701,25.069,38.851,0,284
10300,0.98,0.124,0.248,2.02,1.39,2.85,-74.208,26.567,38.851,0,265
10321,0.972,0.116,0.248,1.11,1.88,3.27,-74.18,24.306,38.851,0,244
10342,0.964,0.112,0.248,1.81,1.74,3.13,-74.014,24.719,38.851,0,232
10362,0.968,0.12,0.252,1.25,2.02,3.76,-74.594,23.877,38.851,0,262
10384,0.936,0.104,0.24,0.35,2.16,8,-74.393,23.43,38.938,0,390
10404,0.992,0.104,0.248,2.99,0.97,1.67,-74.838,22.753,38.895,0,380
10425,0.964,0.112,0.248,1.18,1.32,2.92,-74.242,24.306,38.879,0,308
10446,0.96,0.1,0.24,4.94,0.07,2.5,-74.851,22.622,38.747,0,434
10467,0.96,0.12,0.236,2.37,1.46,8,-74.587,26.954,38.737,0,352
10488,0.972,0.112,0.26,-0.83,1.67,2.3,-73.767,23.307,38.737,0,314
10509,0.98,0.12,0.232,1.32,1.74,3.06,-74.217,26.942,38.737,0,292
10529,0.96,0.116,0.248,4.73,-0.35,2.92,-74.192,23.2,38.737,0,282
10551,0.976,0.1,0.236,3.97,0.7,1.88,-75.291,22.965,38.737,0,294
10571,0.96,0.104,0.24,1.88,2.64,3.2,-74.764,23.43,38.723,0,397
10592,0.96,0.108,0.24,1.88,1.6,4.52,-74.675,24.23,38.717,0,444
10613,0.98,0.112,0.244,2.71,1.04,2.37,-74.685,24.658,38.824,0,464
10634,0.96,0.108,0.24,2.16,0.63,2.5,-74.675,24.23,38.872,0,469
10655,0.96,0.108,0.24,2.02,1.39,3.13,-74.675,24.23,38.799,0,360
10676,0.96,0.112,0.244,1.25,1.81,6.4,-74.225,25.429,38.799,0,295
10696,0.98,0.12,0.264,0.97,1.18,2.3,-73.751,25.499,38.799,0,262
10718,0.964,0.12,0.24,0.7,2.78,3.62,-74.451,26.567,38.799,0,245
10738,0.968,0.108,0.252,2.3,1.67,3.13,-74.192,23.2,38.799,0,238
10759,0.968,0.104,0.236,1.67,1.46,2.99,-75.087,23.784,38.722,0,331
10780,0.964,0.104,0.236,1.32,0.9,3.83,-75.028,23.784,38.715,0,375
10801,0.968,0.112,0.24,1.04,1.04,4.31,-74.704,25.019,38.729,0,401
10822,0.956,0.104,0.244,0.83,0.83,6.54,-74.499,23.087,38.625,0,414
10843,0.968,0.112,0.244,2.37,-0.42,4.03,-74.848,25.798,38.688,0,336
10863,0.984,0.124,0.244,1.32,-0.21,2.71,-74.593,25.429,38.638,0,279
10885,0.964,0.108,0.244,1.18,0.14,3.2,-74.472,23.877,38.638,0,261
10905,0.972,0.112,0.248,1.88,0.14,3.48,-74.366,24.306,38.638,0,229
10926,0.976,0.12,0.24,2.02,0.21,5.01,-74.633,26.567,38.638,0,221
10947,0.96,0.116,0.232,0.9,0.42,3.62,-74.886,26.567,38.582,0,308
10968,0.972,0.112,0.232,1.39,0.49,3.48,-75.161,25.771,38.743,0,444
10989,0.96,0.1,0.228,1.32,0.9,3.83,-75.467,23.684,38.504,0,302
11010,0.968,0.096,0.248,0.9,0,4.87,-74.074,22.111,38.679,0,345
11030,0.972,0.104,0.224,4.31,-1.04,2.64,-76.931,29.747,38.433,0,343
11052,0.972,0.108,0.232,0.35,0.35,3.2,-74.115,22.875,38.496,0,289
11072,0.964,0.112,0.232,-2.78,1.32,3.41,-75.043,25.771,38.496,0,265
11092,0.964,0.12,0.224,1.39,0.42,4.17,-75.238,28.181,38.496,0,248
11114,0.98,0.104,0.24,3.9,-1.81,2.57,-75.061,23.43,38.496,0,241
11134,0.976,0.096,0.236,2.78,0.07,2.09,-75.375,22.137,38.496,0,333
11156,0.972,0.104,0.232,1.67,1.32,2.92,-75.347,24.147,38.706,0,388
11176,0.968,0.1,0.232,0.9,1.04,5.15,-75.782,25.303,38.348,0,429
11197,0.964,0.108,0.236,2.5,1.11,3.41,-75.144,26.968,38.44,0,445
11218,0.952,0.108,0.224,2.37,1.04,3.55,-75.277,25.771,38.637,0,388
11239,0.972,0.108,0.236,1.6,1.46,3.9,-75.056,24.592,38.722,0,288
11259,0.98,0.108,0.224,1.11,2.37,3.27,-75.767,25.743,38.722,0,239
11281,0.968,0.116,0.252,0.49,2.09,3.48,-74.014,24.719,38.722,0,219
11301,0.968,0.108,0.216,0.28,3.48,3.76,-75.997,26.567,38.722,0,211
11323,0.968,0.104,0.244,1.18,2.64,3.9,-74.682,23.087,38.722,0,283
11343,0.968,0.1,0.232,0.7,2.43,3.34,-75.347,24.147,38.362,0,338
11364,0.968,0.1,0.232,0.35,2.3,3.41,-74.855,24.23,38.397,0,370
11385,0.96,0.108,0.232,-0.49,2.78,3.41,-74.704,25.019,38.411,0,388
11406,0.976,0.108,0.236,0.14,2.71,3.34,-75.114,24.592,38.397,0,367
11427,0.976,0.112,0.244,-0.42,2.57,2.92,-74.625,24.658,38.411,0,288
11448,0.968,0.104,0.24,0.21,2.3,3.2,-74.885,23.43,38.411,0,253
11468,0.972,0.1,0.24,0.42,2.5,3.34,-75.03,22.622,38.411,0,229
11490,0.976,0.104,0.24,0.49,2.16,3.55,-75.003,23.43,38.411,0,232
11510,0.968,0.104,0.236,0.7,2.09,3.41,-74.735,24.23,38.411,0,270
11531,0.96,0.104,0.236,0.42,1.88,3.06,-74.885,23.43,38.504,0,331
11552,0.964,0.108,0.232,-0.49,1.88,3.2,-75.491,24.521,38.32,0,365
11573,0.968,0.096,0.224,-0.56,2.02,3.2,-75.874,23.2,38.44,0,497
11594,0.952,0.1,0.236,0.97,2.3,3.41,-74.937,22.965,38.475,0,315
11615,0.972,0.104,0.26,-0.7,1.11,7.58,-73.934,21.803,38.313,0,269
11635,0.988,0.1,0.188,3.41,0.49,1.74,-77.843,28.011,38.313,0,271
11657,0.972,0.108,0.252,-3.62,3.2,2.99,-74.254,23.2,38.313,0,256
11677,0.968,0.108,0.252,-3.76,3.62,3.55,-75.398,25.348,38.313,0,245
11698,0.964,0.112,0.232,-0.07,1.32,4.38,-74.851,22.622,38.313,0,284
11719,0.964,0.092,0.248,1.74,-0.14,3.2,-75.005,19.834,38.278,0,365
11740,0.972,0.092,0.232,1.39,0.49,2.16,-75.605,21.632,38.341,0,410
11761,0.976,0.104,0.24,0.42,2.5,2.5,-75.003,23.43,38.39,0,445
11782,0.972,0.1,0.236,0.56,1.74,3.48,-75.233,22.965,38.271,0,470
11802,0.972,0.116,0.24,1.39,0.63,3.69,-74.67,25.798,38.243,0,375
11824,0.968,0.112,0.24,0.7,1.32,3.06,-74.704,25.019,38.243,0,312
11844,0.968,0.104,0.244,-0.14,1.39,5.01,-74.825,23.43,38.243,0,258
11866,0.972,0.1,0.24,1.88,1.32,2.43,-76.041,23.2,38.243,0,219
11886,0.98,0.104,0.252,0.07,1.88,2.78,-74.644,21.163,38.243,0,232
11907,0.96,0.104,0.22,-0.9,3.13,3.69,-75.782,25.303,38.088,0,327
11928,0.968,0.092,0.248,0.63,1.88,3.97,-74.722,20.355,38.187,0,367
11949,0.964,0.1,0.24,-0.21,1.67,3.48,-74.911,22.622,38.06,0,391
11969,0.968,0.108,0.244,-1.39,2.3,3.55,-74.594,23.877,38.278,0,403
11991,0.98,0.112,0.24,-0.97,2.43,3.27,-74.882,25.019,38.152,0,316
12011,0.968,0.1,0.24,-0.7,2.23,3.27,-74.624,21.962,38.152,0,271
12033,0.976,0.096,0.248,-0.49,1.88,3.34,-74.563,21.962,38.152,0,246
12053,0.956,0.096,0.248,0.14,1.74,2.92,-75.047,20.66,38.152,0,233
12073,0.972,0.096,0.244,-0.07,1.95,3.13,-74.909,21.478,38.152,0,221
12095,0.972,0.088,0.248,-0.42,2.09,3.34,-74.857,19.538,38.109,1,337
12115,0.964,0.088,0.244,0.35,1.74,3.2,-74.946,19.834,38.243,1,376
12136,0.964,0.092,0.236,0,1.95,3.13,-75.283,21.299,38.067,1,404
12157,0.964,0.092,0.236,-0.21,1.6,3.13,-75.283,21.299,38.173,1,426
12178,0.972,0.096,0.24,-0.42,2.02,2.99,-74.869,20.66,38.088,1,393
12199,0.972,0.104,0.248,-0.35,1.53,3.41,-74.377,20.856,38.053,1,356
12220,0.968,0.1,0.252,-2.5,1.46,3.83,-73.704,23.307,38.053,1,176
12240,0.972,0.088,0.208,3.69,0.97,2.85,-76.925,22.934,38.053,1,273
12262,0.972,0.104,0.244,-1.18,2.16,3.48,-74.742,23.087,38.053,1,273
12282,0.972,0.088,0.252,-3.55,2.71,2.85,-74.65,19.251,37.99,1,369
12303,0.956,0.092,0.22,-0.42,2.99,4.03,-76,22.695,38.109,1,417
12324,0.956,0.096,0.248,1.74,0.07,3.62,-74.46,21.163,38.046,1,448
12345,0.968,0.076,0.244,2.5,-0.49,1.95,-75.359,18.436,37.975,1,479
12366,0.976,0.088,0.248,1.74,1.39,2.43,-74.886,22.287,38.081,1,430
12387,0.968,0.104,0.244,1.53,0.63,4.38,-74.479,22.753,37.961,1,383
12407,0.984,0.108,0.252,0.9,0.42,2.78,-74.436,23.2,37.961,1,344
12429,0.984,0.104,0.244,1.6,0.35,2.64,-74.92,23.087,37.961,1,302
12449,0.984,0.096,0.256,-1.32,2.5,2.71,-74.477,20.558,37.961,1,258
12470,0.964,0.084,0.248,-2.23,4.24,2.57,-74.81,18.713,37.961,1,317
12491,0.968,0.084,0.252,-2.37,3.2,2.85,-74.661,18.436,38.053,1,356
12512,0.96,0.084,0.244,-2.64,4.24,2.57,-75.525,21.976,38.011,1,385
12533,0.96,0.08,0.244,-1.6,2.3,2.64,-74.334,17.355,37.983,1,407
12554,0.968,0.072,0.244,0,1.81,1.88,-75.194,20.975,38.194,1,361
12574,0.972,0.096,0.252,-1.81,2.16,1.88,-74.5,20.856,38.032,1,297
12596,0.98,0.1,0.252,-2.71,2.64,2.23,-74.541,21.646,38.032,1,264
12616,0.976,0.092,0.252,-2.5,2.85,2.3,-74.636,20.058,38.032,1,241
12638,0.976,0.096,0.256,-2.09,2.3,1.81,-74.356,20.558,38.032,1,230
12658,0.964,0.084,0.248,-1.04,1.11,1.74,-74.81,18.713,38.032,1,303
12679,0.964,0.092,0.256,-1.11,1.04,2.09,-74.601,20.355,37.743,1,358
12700,0.956,0.088,0.248,-1.25,1.39,2.02,-74.825,19.834,38.003,1,384
12721,0.96,0.088,0.244,-1.11,1.46,1.95,-74.96,18.998,38.011,1,416
12741,0.968,0.096,0.244,-0.97,1.25,1.88,-74.849,21.478,38.095,1,378
12763,0.968,0.1,0.244,-2.02,1.25,1.74,-74.767,22.287,37.94,1,302
12783,0.972,0.096,0.248,-2.37,1.67,1.95,-74.704,21.163,37.94,1,266
12805,0.976,0.092,0.248,-1.39,1.39,1.74,-74.842,20.355,37.94,1,362
12825,0.972,0.096,0.256,0,1.11,1.53,-74.295,20.558,37.94,1,154
12846,0.964,0.088,0.256,-1.95,0.83,1.81,-74.662,20.355,37.94,1,263
12867,0.964,0.088,0.204,-1.74,2.37,2.23,-77.249,26.097,37.975,1,352
12888,0.972,0.084,0.26,-2.43,1.53,1.74,-73.695,18.179,37.89,1,392
12908,0.948,0.088,0.236,-5.15,2.99,2.3,-75.126,20.451,38.109,1,428
12930,0.972,0.1,0.244,0,1.53,2.23,-74.827,22.287,38.032,1,441
12950,0.98,0.092,0.248,0.07,2.64,1.53,-74.901,20.355,38.13,1,355
12972,0.976,0.092,0.256,-0.9,3.76,1.53,-74.431,19.769,38.13,1,331
12992,0.968,0.096,0.256,-2.23,4.52,1.95,-74.233,20.558,38.13,1,327
13012,0.976,0.096,0.252,-1.11,3.62,1.46,-74.479,22.753,38.13,1,322
13034,0.968,0.1,0.248,-0.83,4.38,1.6,-74.522,21.163,38.13,1,357
13054,0.964,0.092,0.24,0.35,5.43,1.46,-74.729,21.478,38.166,1,412
13075,0.964,0.088,0.244,-1.88,8,1.67,-74.946,19.834,38.201,1,427
13096,0.96,0.092,0.232,-1.88,10.23,1.81,-75.433,21.632,38.038,1,426
13117,0.948,0.084,0.276,-4.87,9.25,2.02,-73.079,16.929,38.194,1,433
13138,0.964,0.092,0.256,-2.02,7.44,1.04,-74.247,19.769,38.273,1,362
13159,0.964,0.092,0.272,-2.3,5.63,1.11,-73.419,18.689,38.273,1,348
13179,0.968,0.1,0.272,-1.74,4.24,1.88,-73.747,20.748,38.273,1,305
13201,0.96,0.108,0.264,-2.02,4.24,2.5,-73.725,22.559,38.273,1,271
13221,0.96,0.104,0.268,-2.57,4.94,2.5,-73.977,19.488,38.273,1,276
13243,0.956,0.092,0.268,-2.57,4.38,2.16,-73.496,18.948,38.358,1,354
13263,0.952,0.088,0.268,-2.71,5.36,1.74,-73.501,18.179,38.052,1,392
13284,0.944,0.088,0.268,-2.16,3.62,0.7,-73.369,18.179,38.316,1,408
13305,0.952,0.096,0.264,-0.97,3.62,1.46,-73.565,19.985,38.202,1,427
13326,0.948,0.084,0.28,-2.78,3.06,3.13,-72.868,16.7,38.31,1,331
13346,0.956,0.092,0.268,-2.57,2.37,3.06,-73.626,18.948,38.31,1,278
13368,0.956,0.1,0.264,-2.57,1.81,2.64,-72.941,19.18,38.31,1,245
13388,0.948,0.096,0.268,-1.46,1.32,3.41,-73.282,19.441,38.31,1,270
13409,0.96,0.092,0.268,-2.16,2.99,2.99,-73.561,18.948,38.31,1,235
13430,0.94,0.08,0.276,-0.7,1.74,1.6,-73.007,16.166,38.446,1,236
13451,0.952,0.084,0.26,-2.09,1.39,-3.41,-73.992,17.906,38.403,1,391
13472,0.94,0.08,0.28,0.14,-0.7,2.3,-72.793,15.947,38.259,1,429
13493,0.936,0.076,0.276,-4.1,0.28,3.06,-72.999,15.397,38.295,1,457
13513,0.948,0.104,0.264,1.46,-1.25,3.2,-73.203,21.211,38.582,1,376
13535,0.964,0.092,0.272,2.99,-0.14,2.02,-74.693,18.167,38.582,1,324
13555,0.968,0.084,0.252,0.9,1.81,1.39,-73.146,18.436,38.582,1,291
13576,0.964,0.112,0.284,0.56,1.32,-0.49,-72.433,21.524,38.582,1,269
13597,0.96,0.096,0.276,-1.32,1.39,2.85,-73.075,19.18,38.582,1,267
13618,0.948,0.092,0.268,0.28,-0.35,2.5,-73.364,18.948,38.54,1,373
13638,0.94,0.096,0.268,0.07,-0.56,2.85,-73.157,19.709,38.733,1,391
13660,0.952,0.088,0.272,0.35,-0.63,2.5,-73.291,17.929,38.573,1,389
13680,0.956,0.088,0.26,-0.63,-0.07,1.88,-74.268,20.058,38.338,1,392
13702,0.956,0.108,0.26,-1.11,0.07,-1.39,-71.975,20.047,38.589,1,310
13722,0.952,0.092,0.276,-3.69,1.46,4.24,-73.769,19.214,38.539,1,251
13743,0.96,0.096,0.268,-1.04,0.97,2.64,-73.488,19.709,38.539,1,223
13764,0.972,0.104,0.276,-1.95,2.37,1.95,-73.125,20.649,38.539,1,206
13785,0.984,0.112,0.264,-2.43,5.98,-2.64,-73.757,22.99,38.539,1,189
13805,0.956,0.092,0.264,-5.08,9.18,2.02,-73.704,19.214,38.524,1,289
13827,0.952,0.084,0.268,-3.69,7.17,2.37,-73.568,17.404,38.704,1,341
13847,0.944,0.092,0.28,-2.5,5.5,2.37,-73.021,17.929,38.704,1,369
13869,0.936,0.08,0.28,-1.88,1.11,-3.13,-72.597,18.19,38.512,1,373
13889,0.956,0.092,0.276,0.77,0.28,2.23,-72.877,18.436,38.445,1,311
13910,0.94,0.1,0.272,0.28,-0.56,2.16,-72.871,20.187,38.367,1,241
13931,0.964,0.104,0.268,1.6,0.21,1.32,-73.4,21.211,38.367,1,216
13952,0.928,0.088,0.268,-1.32,0.35,3.2,-73.098,18.179,38.367,1,207
13972,0.956,0.1,0.276,0.28,-0.42,2.99,-72.935,19.918,38.367,1,272
13993,0.948,0.096,0.272,2.3,-1.67,2.5,-73.082,19.441,38.367,1,225
14014,0.944,0.092,0.28,2.85,-2.37,1.88,-73.288,18.689,38.779,1,370
14035,0.964,0.1,0.212,3.76,-2.57,-0.77,-72.456,17.717,38.653,1,403
14056,0.92,0.068,0.3,-1.88,-1.81,2.23,-73.511,20.267,38.805,1,442
14076,0.96,0.108,0.272,-0.42,-2.3,2.78,-73.051,21.658,38.762,1,424
14098,0.964,0.096,0.272,2.43,-2.85,1.46,-73.347,19.441,38.576,1,342
14118,0.956,0.1,0.264,1.6,-1.53,2.16,-73.554,20.748,38.576,1,308
14139,0.96,0.1,0.264,0.56,0,2.64,-73.619,20.748,38.576,1,290
14160,0.952,0.104,0.268,1.88,-1.11,2.64,-73.203,21.211,38.576,1,286
14181,0.936,0.104,0.252,0.9,-1.95,2.57,-73.634,22.428,38.576,1,356
14202,0.944,0.096,0.248,2.57,-1.25,2.3,-74.335,22.287,38.788,1,412
14223,0.944,0.096,0.256,1.18,-0.83,2.23,-73.367,19.985,38.611,1,422
14243,0.944,0.08,0.256,1.74,-1.39,2.5,-74.145,17.355,38.76,1,434
14265,0.952,0.104,0.228,2.09,0.35,2.92,-75.258,24.521,38.667,1,412
14285,0.948,0.1,0.276,-0.42,0.35,4.1,-72.8,19.918,38.711,1,314
14306,0.956,0.116,0.232,2.78,-1.04,4.59,-74.825,26.567,38.711,1,274
14327,0.972,0.108,0.256,0.7,-0.56,4.24,-74.053,22.875,38.711,1,243
14348,0.968,0.1,0.272,0.21,-0.14,3.97,-73.873,20.748,38.711,1,226
14369,0.96,0.096,0.264,0.63,0.21,3.27,-75.175,22.965,38.711,1,272
14390,0.968,0.096,0.244,-0.35,0.83,2.85,-73.884,22.111,38.531,1,349
14410,0.952,0.084,0.252,1.81,0.14,2.99,-74.415,18.436,38.572,1,385
14432,0.944,0.092,0.248,1.18,0.07,3.62,-74.352,20.355,38.438,1,410
14452,0.948,0.096,0.24,1.53,-0.14,3.55,-74.754,21.803,38.575,1,411
14473,0.968,0.104,0.256,1.88,-0.07,3.48,-74.074,22.111,38.581,0,277
14494,0.96,0.104,0.244,0.49,1.32,3.48,-74.56,23.087,38.581,0,228
14515,0.964,0.1,0.256,1.04,0.9,3.06,-74.093,21.338,38.581,0,208
14535,0.964,0.108,0.252,0.49,0.77,2.85,-74.011,22.111,38.581,0,245
14557,0.972,0.104,0.256,2.37,0.21,2.71,-74.247,19.769,38.581,0,135
14577,0.964,0.092,0.26,2.5,0.35,2.71,-74.04,19.488,38.445,0,304
14599,0.948,0.096,0.24,3.55,-0.49,3.48,-74.754,21.803,38.458,0,342
14619,0.964,0.092,0.244,-0.07,1.6,2.02,-74.869,20.66,38.459,0,370
14640,0.944,0.1,0.236,-0.97,0.83,3.76,-74.815,22.965,38.509,0,388
14661,0.964,0.096,0.26,4.59,-2.09,2.43,-73.965,20.267,38.379,0,292
14682,0.964,0.1,0.236,2.64,0.07,2.57,-75.116,22.965,38.379,0,253
14702,0.968,0.108,0.256,1.88,0.7,3.13,-74.074,22.111,38.379,0,230
14724,0.968,0.108,0.252,2.02,0.28,2.92,-74.014,24.719,38.379,0,224
14744,0.968,0.12,0.248,2.09,0.21,2.78,-74.41,23.877,38.379,0,235
14766,0.952,0.096,0.244,2.37,0.28,2.57,-74.607,21.478,38.522,0,318
14786,0.948,0.092,0.252,2.92,-0.63,2.71,-74.205,20.058,38.607,0,345
14807,0.964,0.096,0.248,2.78,-0.28,2.85,-74.583,21.163,38.487,0,360
14828,0.956,0.104,0.232,2.64,-0.21,2.92,-75.113,24.147,38.491,0,378
14849,0.964,0.108,0.256,1.04,0.9,2.99,-73.927,22.875,38.594,0,291
14869,0.96,0.112,0.244,2.23,-0.83,2.85,-73.668,21.503,38.594,0,245
14891,0.976,0.1,0.252,2.3,-0.77,2.3,-74.454,23.534,38.594,0,221
14911,0.968,0.112,0.248,0.97,0.28,3.13,-74.138,24.719,38.594,0,207
14932,0.976,0.104,0.248,2.64,0.63,2.78,-74.601,22.753,38.594,0,201
14953,0.952,0.096,0.244,2.3,-0.14,3.41,-74.607,21.478,38.608,0,302
14973,0.956,0.104,0.236,2.09,0.21,3.69,-74.908,23.784,38.491,0,342
14995,0.952,0.108,0.24,2.3,0.35,3.9,-74.552,24.23,38.627,0,364
15015,0.96,0.1,0.248,1.32,0.56,4.1,-74.441,21.962,38.626,0,392
15036,0.964,0.116,0.244,0.63,0.63,4.17,-74.735,24.23,38.507,0,314
15057,0.96,0.112,0.24,1.32,0.63,3.76,-74.622,23.087,38.457,0,255
15078,0.968,0.108,0.24,1.11,1.18,3.48,-74.655,23.877,38.457,0,218
15099,0.968,0.112,0.248,0.77,1.46,3.83,-74.304,24.306,38.457,0,236
15120,0.968,0.108,0.248,1.95,0.77,3.9,-74.393,23.534,38.457,0,178
15140,0.968,0.1,0.24,2.71,0.42,3.9,-74.971,22.622,38.464,0,202
15162,0.968,0.1,0.248,4.66,0.63,2.85,-74.563,21.962,38.343,0,341
15182,0.964,0.104,0.232,2.37,-0.63,3.69,-75.231,24.147,38.583,0,379
15203,0.968,0.092,0.244,-0.28,1.32,2.5,-75.262,23.319,38.436,0,402
15224,0.952,0.116,0.22,0.14,1.74,3.76,-74.982,27.761,38.456,0,353
15245,0.964,0.108,0.252,5.29,-0.97,2.16,-74.968,21.478,38.463,0,294
15266,0.976,0.1,0.236,3.69,-0.42,2.43,-75.291,22.965,38.463,0,272
15287,0.98,0.108,0.244,1.95,1.25,3.69,-74.774,23.877,38.463,0,259
15307,0.972,0.108,0.236,1.95,0.9,3.2,-75.056,24.592,38.463,0,257
15329,0.968,0.104,0.228,1.95,1.32,2.85,-75.491,24.521,38.463,0,340
15349,0.956,0.104,0.228,2.64,0.83,3.06,-75.317,24.521,38.419,0,376
15371,0.964,0.092,0.232,2.3,0.7,3.55,-75.548,21.632,38.427,0,391
15391,0.972,0.096,0.22,2.43,1.74,3.13,-75.197,24.965,38.497,0,403
15412,0.964,0.104,0.244,1.46,2.57,2.78,-74.399,22.428,38.533,0,365
15433,0.972,0.108,0.224,0.77,2.71,3.55,-75.655,25.743,38.462,0,294
15454,0.976,0.104,0.244,2.43,0.77,2.92,-74.802,23.087,38.462,0,260
15474,0.972,0.112,0.224,1.6,0.7,3.48,-75.557,26.567,38.462,0,240
15496,0.972,0.12,0.24,1.6,0.97,3.83,-74.573,26.567,38.462,0,230
15516,0.976,0.096,0.228,2.16,2.02,3.06,-75.782,22.835,38.462,0,303
15538,0.964,0.092,0.236,1.25,2.71,2.99,-74.997,22.965,38.49,0,354
15558,0.964,0.092,0.228,0.49,2.43,4.31,-75.053,24.147,38.546,0,391
15579,0.964,0.108,0.228,2.64,1.46,2.43,-75.34,25.348,38.37,0,418
15600,0.964,0.108,0.228,2.02,1.6,2.78,-75.34,25.348,38.313,0,403
15621,0.968,0.116,0.232,1.95,1.74,2.92,-75.005,26.567,38.525,0,339
15642,0.972,0.112,0.244,1.95,2.09,2.99,-74.565,24.658,38.525,0,297
15663,0.972,0.108,0.236,1.67,1.67,3.48,-75.056,24.592,38.525,0,272
15683,0.972,0.104,0.236,0.35,1.74,3.76,-75.146,23.784,38.525,0,264
15705,0.968,0.116,0.236,1.46,1.95,2.71,-75.491,24.521,38.525,0,354
15725,0.968,0.104,0.228,1.74,2.02,2.64,-75.407,22.481,38.525,0,395
15746,0.952,0.092,0.236,2.16,2.57,3.34,-75.106,21.299,38.427,0,327
15767,0.956,0.092,0.2,4.87,1.53,4.31,-77.038,24.704,38.511,0,461
15788,0.968,0.112,0.232,1.04,2.09,2.43,-75.102,25.771,38.377,0,468
15809,0.972,0.104,0.26,-0.35,2.57,2.64,-73.934,21.803,38.334,0,372
15830,0.968,0.108,0.22,-0.07,4.1,3.48,-75.798,26.149,38.334,0,329
15850,0.972,0.108,0.244,3.48,3.34,2.99,-74.655,23.877,38.334,0,300
15872,0.976,0.104,0.228,2.71,5.36,1.95,-75.405,24.147,38.334,0,289
15892,0.984,0.108,0.244,1.53,7.1,1.81,-75.146,23.784,38.334,0,329
15913,0.964,0.1,0.236,2.78,5.63,1.95,-75.116,22.965,38.533,0,412
15934,0.956,0.112,0.24,2.99,3.97,2.02,-74.521,25.019,38.688,0,449
15954,0.956,0.1,0.236,3.34,3.13,2.23,-74.997,22.965,38.617,0,462
15976,0.956,0.1,0.24,2.64,3.48,1.81,-74.791,22.622,38.623,0,450
15996,0.968,0.112,0.236,1.53,5.01,2.37,-74.903,25.39,38.836,0,328
16018,0.972,0.112,0.26,2.09,4.87,2.5,-74.565,24.658,38.836,0,282
16038,0.968,0.116,0.224,1.18,5.5,2.78,-74.092,26.942,38.836,0,252
16059,0.964,0.12,0.256,2.57,3.83,2.78,-74.014,24.719,38.836,0,238
16080,0.952,0.116,0.232,1.11,3.41,3.48,-74.765,26.567,38.836,0,252
16101,0.96,0.112,0.248,-0.14,2.99,3.48,-74.18,24.306,38.806,0,345
16121,0.964,0.108,0.248,0.49,2.92,3.62,-74.332,23.534,38.808,0,382
16143,0.96,0.104,0.252,0.21,3.41,4.03,-74.152,22.428,38.867,0,409
16163,0.948,0.108,0.24,0.07,2.64,4.1,-74.49,24.23,38.943,0,424
16185,0.964,0.108,0.252,0.07,2.09,4.94,-73.915,23.964,38.985,0,332
16205,0.964,0.116,0.244,-0.14,1.81,3.97,-74.18,25.823,38.985,0,302
16226,0.964,0.124,0.248,-0.14,1.11,3.69,-74.212,25.069,38.985,0,267
16247,0.96,0.116,0.252,0.9,0.7,3.48,-73.887,24.719,38.985,0,243
16268,0.964,0.108,0.244,0.63,0.97,2.92,-74.534,23.877,38.985,0,241
16288,0.956,0.096,0.244,0.35,1.81,2.99,-74.668,21.478,38.887,0,359
16310,0.948,0.088,0.248,0.63,1.6,6.82,-74.492,19.538,38.823,0,466
16330,0.96,0.096,0.24,1.46,0.21,2.43,-74.936,21.803,38.844,0,328
16352,0.96,0.104,0.268,4.1,-1.04,2.92,-76.184,22.168,38.589,0,474
16372,0.956,0.108,0.208,0.28,0,4.03,-74.18,24.306,38.808,0,392
16393,0.964,0.104,0.26,-1.6,0.14,3.13,-73.385,21.95,38.794,0,338
16414,0.956,0.12,0.236,-2.23,0.77,4.73,-74.526,26.954,38.794,0,303
16435,0.972,0.1,0.256,2.57,-1.53,4.17,-74.217,21.338,38.794,0,284
16455,0.972,0.1,0.244,2.64,-1.53,3.13,-74.827,22.287,38.794,0,281
16477,0.956,0.112,0.248,1.6,0.35,3.55,-74.117,24.306,38.737,0,381
16497,0.952,0.1,0.236,0.56,1.46,6.75,-74.937,22.965,38.701,0,443
16519,0.964,0.1,0.248,0.9,0.07,3.69,-75.113,21.803,38.595,0,468
16539,0.976,0.1,0.236,1.04,-0.14,2.92,-74.971,22.622,38.454,0,478
16560,0.952,0.112,0.236,0.83,-0.42,3.41,-74.521,25.019,38.468,0,371
16581,0.964,0.1,0.236,1.53,1.04,3.06,-75.116,22.965,38.461,0,282
16602,0.968,0.104,0.256,0.63,0.63,3.27,-74.074,22.111,38.461,0,240
16622,0.968,0.1,0.216,1.95,2.99,6.19,-76.191,24.844,38.461,0,221
16644,0.968,0.112,0.252,0.63,1.39,3.55,-74.104,23.964,38.461,0,206
16664,0.976,0.088,0.24,1.25,1.39,3.48,-75.329,20.138,38.461,0,292
16686,0.96,0.096,0.24,0.28,1.11,3.48,-75.017,20.975,38.398,0,344
16706,0.964,0.092,0.236,0.21,0.49,3.34,-74.849,21.478,38.559,0,372
16727,0.964,0.1,0.24,0.14,0.07,3.62,-75.225,21.299,38.405,0,379
16748,0.952,0.096,0.24,0.97,0.07,8.77,-74.815,21.803,38.356,0,335
16769,0.972,0.1,0.256,2.09,-1.46,3.13,-74.217,21.338,38.166,0,259
16789,0.972,0.1,0.256,3.83,-3.9,5.5,-74.217,21.338,38.166,0,235
16811,0.964,0.104,0.248,2.99,-4.59,5.84,-74.418,22.753,38.166,0,204
16831,0.972,0.096,0.236,3.2,-4.45,5.29,-75.318,22.137,38.166,0,181
16852,0.964,0.092,0.216,1.74,-2.71,4.66,-76.524,23.461,38.166,0,259
16873,0.964,0.096,0.22,1.46,-1.18,4.17,-75.262,23.319,38.074,0,336
16893,0.964,0.092,0.232,1.39,-0.35,3.83,-75.26,22.137,38.061,0,377
16915,0.964,0.088,0.244,-0.83,-0.14,4.45,-74.946,19.834,38.004,0,233
16935,0.976,0.084,0.212,5.63,-2.16,3.83,-76.855,21.616,37.984,0,339
16957,0.968,0.108,0.22,0.35,-0.63,3.13,-75.798,26.149,37.935,0,265
16977,0.968,0.1,0.244,-1.74,0.7,2.92,-74.767,22.287,37.935,0,233
16998,0.976,0.092,0.216,1.18,0.28,4.8,-76.48,23.072,37.935,0,222
17019,0.976,0.104,0.244,3.69,-1.04,2.64,-75.433,22.137,37.935,0,219
17040,0.976,0.084,0.232,3.06,-0.97,1.88,-76.154,21.449,37.935,0,296
17060,0.976,0.092,0.224,1.53,0.83,2.09,-75.695,23.684,37.817,0,357
17082,0.972,0.096,0.224,1.46,1.04,4.94,-75.93,23.2,38.039,0,396
17102,0.976,0.096,0.216,2.23,0.28,3.2,-76.392,23.964,37.885,0,419
17124,0.972,0.1,0.208,1.81,1.39,3.27,-76.649,25.679,38.207,0,397
17144,0.968,0.104,0.232,0.28,2.5,2.43,-75.289,24.147,37.997,0,270
17165,0.972,0.1,0.224,1.11,3.2,3.9,-75.841,24.059,37.997,0,205
17186,0.976,0.1,0.24,1.18,2.16,3.13,-75.93,23.2,37.997,0,182
17207,0.972,0.096,0.2,0.63,2.85,3.34,-75.636,24.907,37.997,0,175
17227,0.964,0.096,0.228,0.63,2.5,3.69,-75.836,21.106,37.997,0,225
17249,0.968,0.084,0.224,0.28,3.27,2.99,-76.124,20.558,38.032,0,316
17269,0.968,0.096,0.232,-0.9,2.64,2.92,-75.465,22.481,37.963,0,364
17291,0.972,0.092,0.228,-0.7,2.57,3.13,-75.811,21.976,37.81,0,384
17311,0.968,0.088,0.22,-0.63,1.88,3.9,-76.251,21.803,37.914,0,384
17332,0.972,0.096,0.236,-0.63,1.74,3.83,-75.318,22.137,38.025,0,289
17353,0.976,0.096,0.236,-0.14,1.74,3.2,-75.67,22.835,38.025,0,253
17374,0.972,0.1,0.232,-0.14,1.95,3.13,-75.175,22.965,38.025,0,240
17395,0.968,0.108,0.228,-0.07,1.88,3.48,-75.493,23.319,38.025,0,211
17416,0.972,0.088,0.228,-0.35,1.95,3.2,-75.892,21.106,38.025,0,237
17436,0.972,0.096,0.228,-0.7,2.09,3.41,-75.726,22.835,37.934,0,327
17458,0.972,0.088,0.22,-0.9,2.09,3.2,-76.306,21.803,37.83,0,518
17478,0.964,0.084,0.224,-1.32,1.81,2.92,-76.068,20.558,37.913,0,304
17499,0.972,0.092,0.248,-1.32,1.25,3.48,-74.782,20.355,38.13,0,429
17520,0.976,0.092,0.196,-0.35,1.39,3.48,-76.487,24.364,37.829,0,350
17541,0.972,0.092,0.232,-2.78,3.9,2.71,-75.853,20.774,37.829,0,311
17562,0.976,0.092,0.244,-2.64,3.27,3.41,-75.841,24.059,37.829,0,288
17583,0.972,0.1,0.24,1.11,1.53,3.55,-75.03,22.622,37.829,0,276
17603,0.972,0.084,0.236,1.6,0.35,2.3,-75.554,19.594,37.829,0,284
17625,0.972,0.088,0.228,0.35,1.11,2.5,-75.892,21.106,37.809,0,392
17645,0.972,0.092,0.228,0.28,2.3,2.64,-75.811,21.976,37.885,0,456
17667,0.968,0.084,0.232,0.97,2.3,2.99,-75.706,19.905,37.886,0,505
17687,0.972,0.084,0.224,1.11,2.09,2.71,-76.068,20.558,37.816,0,502
17708,0.972,0.092,0.232,0.42,2.3,2.5,-75.375,22.137,38.011,0,383
17729,0.972,0.096,0.236,0.21,2.99,2.57,-75.67,22.835,38.011,0,291
17750,0.972,0.096,0.248,-0.21,2.64,2.64,-74.704,21.163,38.011,0,242
17770,0.976,0.092,0.22,0.9,4.03,2.02,-76.276,22.695,38.011,0,226
17792,0.972,0.104,0.252,0.21,2.92,2.71,-74.338,22.428,38.011,0,216
17812,0.968,0.072,0.236,0.83,2.16,2.37,-75.706,16.967,37.851,0,332
17833,0.964,0.088,0.232,-0.97,1.95,2.3,-75.571,20.774,37.746,0,377
17854,0.964,0.084,0.24,-0.77,2.57,2.99,-75.283,21.299,37.836,0,410
17874,0.964,0.092,0.236,-0.7,2.57,3.13,-74.601,20.355,37.849,1,415
17896,0.968,0.092,0.244,-0.63,2.71,2.92,-74.84,18.436,37.753,1,355
17916,0.968,0.088,0.244,-2.5,2.85,2.5,-75.005,19.834,37.746,1,308
17937,0.964,0.088,0.236,-0.35,2.09,3.06,-75.363,20.451,37.746,1,290
17958,0.968,0.088,0.244,-0.14,1.81,3.06,-75.005,19.834,37.746,1,254
17979,0.976,0.092,0.24,0.07,2.02,2.85,-75.252,20.975,37.746,1,246
18000,0.968,0.088,0.228,-1.32,2.5,2.43,-75.836,21.106,37.773,1,330
18021,0.964,0.08,0.236,-1.04,2.16,2.71,-75.396,18.727,37.906,1,535
18041,0.96,0.088,0.232,-0.77,2.16,2.78,-74.869,18.713,37.689,1,345
18063,0.964,0.084,0.252,-1.32,1.04,2.92,-74.452,18.167,37.815,1,402
18083,0.976,0.088,0.208,0.63,1.04,2.71,-76.977,22.934,37.584,1,373
18105,0.976,0.088,0.244,-2.5,2.85,2.71,-75.123,19.834,37.696,1,326
18125,0.972,0.092,0.244,-5.08,2.57,3.55,-74.988,20.66,37.696,1,306
18146,0.964,0.088,0.224,-1.32,-0.77,4.66,-75.988,21.449,37.696,1,293
18167,0.98,0.08,0.248,1.18,-3.55,3.13,-75.115,17.88,37.696,1,290
18188,0.984,0.076,0.236,0.49,-2.71,2.71,-75.655,17.573,37.696,1,352
18209,0.98,0.084,0.24,-1.88,-0.14,3.48,-74.901,20.355,37.652,1,398
18230,0.976,0.092,0.232,-2.09,0.28,3.34,-75.611,19.594,37.766,1,426
18250,0.964,0.08,0.244,-0.35,-0.35,3.06,-75.09,18.154,37.548,1,432
18272,0.972,0.084,0.232,-1.53,0.21,2.71,-75.762,19.905,37.583,1,360
18292,0.964,0.088,0.236,-2.64,1.74,2.43,-75.363,20.451,37.758,1,251
18313,0.972,0.084,0.244,-2.5,1.25,2.99,-75.137,18.998,37.758,1,203
18334,0.976,0.08,0.244,-1.39,2.57,2.78,-75.265,18.154,37.758,1,184
18355,0.968,0.08,0.24,-1.25,1.95,3.55,-75.115,17.88,37.758,1,175
18376,0.972,0.076,0.232,-1.95,1.53,2.23,-76.309,16.337,37.758,1,243
18397,0.972,0.072,0.236,-3.2,1.25,2.99,-75.381,19.594,37.386,1,303
18417,0.972,0.088,0.244,-1.32,0.9,-0.7,-75.064,19.834,37.396,1,333
18439,0.976,0.084,0.232,-2.5,2.09,2.78,-75.818,19.905,37.611,1,352
18459,0.968,0.08,0.24,-2.71,2.16,1.81,-75.359,18.436,37.596,1,338
18481,0.972,0.088,0.248,-2.71,1.25,2.43,-74.857,19.538,37.374,1,262
18501,0.968,0.088,0.248,-1.25,0.77,2.5,-74.797,19.538,37.374,1,237
18522,0.972,0.092,0.232,-1.04,0.83,2.57,-75.076,20.975,37.374,1,206
18543,0.968,0.088,0.244,-2.02,1.88,2.3,-75.605,21.632,37.374,1,198
18564,0.972,0.084,0.236,-2.78,1.95,2.57,-75.582,17.852,37.374,1,252
18585,0.964,0.08,0.232,-2.43,1.39,2.64,-75.723,19.027,37.383,1,425
18606,0.964,0.076,0.236,-1.18,1.25,2.37,-75.582,17.852,37.686,1,278
18626,0.968,0.08,0.248,-1.74,0.28,2.5,-74.939,17.88,37.311,1,343
18648,0.968,0.076,0.188,-2.37,2.16,0.35,-78.174,22.013,37.46,1,379
18668,0.976,0.084,0.256,-2.71,3.55,1.25,-74.573,18.167,37.463,1,299
18690,0.968,0.084,0.248,-6.19,3.83,2.64,-75.905,22.33,37.463,1,263
18710,0.972,0.092,0.228,-1.39,3.41,2.85,-75.026,21.478,37.463,1,244
18731,0.988,0.084,0.244,0.49,4.31,1.18,-75.719,16.7,37.463,1,241
18752,0.972,0.076,0.24,-1.11,4.73,1.53,-75.485,17.573,37.463,1,286
18772,0.976,0.08,0.256,-1.11,4.17,1.95,-74.64,17.355,37.673,1,361
18794,0.968,0.076,0.244,-1.04,3.13,-1.25,-75.216,17.302,37.495,1,400
18814,0.968,0.088,0.228,0.28,3.62,1.39,-75.836,21.106,37.418,1,414
18835,0.948,0.08,0.24,-0.63,4.24,2.23,-75.064,18.436,37.606,1,400
18856,0.972,0.088,0.244,-0.7,4.45,2.37,-75.123,19.834,37.481,1,287
18877,0.976,0.092,0.24,-2.85,4.31,2.23,-74.083,19.214,37.481,1,246
18898,0.976,0.088,0.248,-2.92,5.63,3.06,-74.916,19.538,37.481,1,224
18919,0.972,0.092,0.252,-2.37,5.84,2.37,-74.576,20.058,37.481,1,215
18939,0.964,0.084,0.252,-3.62,4.94,-2.23,-74.6,18.436,37.481,1,231
18961,0.968,0.08,0.248,-3.06,5.36,2.43,-74.939,17.88,37.6,1,321
18981,0.964,0.076,0.244,-4.73,6.61,3.27,-75.158,17.302,37.557,1,359
19002,0.964,0.084,0.248,-5.29,6.54,2.43,-74.661,18.436,37.896,1,389
19023,0.968,0.08,0.256,-5.22,6.61,0.7,-73.992,17.906,37.84,1,415
19044,0.96,0.08,0.264,-4.24,5.15,-2.78,-73.488,17.163,37.868,1,352
19065,0.948,0.076,0.272,-4.8,4.17,2.5,-73.416,15.612,37.868,1,314
19086,0.96,0.08,0.264,-2.99,3.27,2.78,-73.974,16.86,37.868,1,307
19106,0.956,0.092,0.256,-2.43,2.57,1.95,-74.122,19.769,37.868,1,300
19128,0.968,0.1,0.26,-1.6,1.88,-3.06,-73.951,21.039,37.868,1,390
19148,0.948,0.068,0.252,-1.6,2.92,3.48,-74.612,15.102,37.797,1,360
19170,0.948,0.068,0.26,-0.42,2.3,1.88,-73.824,15.834,37.853,1,425
19190,0.96,0.088,0.248,-3.13,3.76,2.64,-76.459,20.325,37.916,1,521
19211,0.952,0.072,0.28,-2.85,3.2,1.25,-73.432,13.056,37.917,1,546
19232,0.952,0.1,0.256,-3.48,2.23,-2.78,-73.902,21.338,37.823,1,472
19253,0.952,0.076,0.26,1.74,1.25,2.92,-74.122,16.295,37.823,1,421
19273,0.968,0.068,0.256,6.12,2.99,0.97,-74.702,14.877,37.823,1,388
19295,0.964,0.104,0.26,2.5,5.01,1.11,-73.808,21.803,37.823,1,362
19315,0.968,0.1,0.272,2.3,3.69,-3.69,-73.339,20.187,37.823,1,357
19337,0.94,0.084,0.256,0.7,2.71,2.02,-73.734,17.104,37.823,1,449
19357,0.94,0.084,0.248,2.02,1.32,1.25,-73.93,19.769,38.202,1,485
19378,0.94,0.092,0.264,1.25,0.97,2.02,-73.435,18.179,38.131,1,493
19399,0.944,0.084,0.26,1.04,1.11,2.85,-73.863,17.906,38.28,1,478
19420,0.968,0.096,0.248,-0.07,2.5,2.99,-74.644,21.163,38.109,1,391
19440,0.964,0.084,0.292,-2.71,2.16,2.57,-72.511,16.05,38.195,1,314
19462,0.972,0.096,0.256,-0.83,2.09,2.23,-74.295,20.558,38.195,1,281
19482,0.956,0.1,0.272,-3.9,1.53,-1.53,-73.141,20.187,38.195,1,250
19504,0.984,0.1,0.26,-4.31,3.27,2.37,-73.496,18.948,38.195,1,235
19524,0.948,0.088,0.268,-7.72,4.45,4.03,-73.844,17.651,38.195,1,318
19545,0.956,0.084,0.264,-6.54,3.69,4.24,-73.146,16.929,38.216,1,358
19566,0.944,0.08,0.26,-4.1,2.64,3.34,-73.93,17.104,38.209,1,378
19587,0.944,0.088,0.268,-0.49,0.63,-0.07,-73.369,18.179,38.252,1,412
19607,0.92,0.072,0.264,-1.11,0.14,5.63,-73.441,15.256,37.994,1,357
19629,0.96,0.072,0.26,-0.7,0.49,4.59,-74.309,15.48,38.052,1,289
19649,0.956,0.088,0.264,-1.6,0.56,4.17,-73.776,18.436,38.052,1,260
19670,0.952,0.084,0.256,0.42,0.14,3.69,-73.704,19.214,38.052,1,289
19691,0.952,0.088,0.264,1.25,0.49,3.48,-73.986,18.7,38.052,1,189
19712,0.948,0.072,0.26,1.46,0.21,3.34,-73.54,14.828,38.052,1,232
19733,0.956,0.08,0.224,2.02,0.63,3.34,-76.034,19.655,37.987,1,346
19753,0.952,0.068,0.3,-0.35,0.97,2.71,-72.099,12.772,37.701,1,386
19774,0.932,0.088,0.248,-3.13,1.88,3.76,-74.238,19.538,37.865,1,401
19795,0.956,0.088,0.26,0.14,0.42,3.13,-73.986,18.7,37.988,1,346
19816,0.96,0.068,0.264,2.99,1.32,2.5,-74.152,14.445,37.838,1,266
19836,0.96,0.088,0.26,1.25,2.64,2.5,-73.971,17.651,37.838,1,234
19858,0.964,0.072,0.268,0.14,2.16,2.43,-73.482,15.612,37.838,1,198
19878,0.96,0.076,0.268,0.49,1.46,3.34,-74.122,19.769,37.838,1,202
19899,0.932,0.08,0.26,1.88,1.46,3.55,-73.734,17.104,37.838,0,289
19920,0.944,0.072,0.26,1.18,2.02,3.69,-74.056,15.48,37.973,0,347
19941,0.94,0.072,0.272,0.14,1.53,3.48,-73.342,14.828,37.98,0,348
19962,0.96,0.072,0.252,1.18,1.39,3.2,-74.736,15.947,38.009,0,370
19983,0.94,0.076,0.276,0.77,1.25,3.34,-73.068,15.397,37.952,0,375
20003,0.952,0.088,0.256,0.83,0.49,4.03,-74.127,20.856,37.922,0,275
20025,0.96,0.084,0.276,1.46,-0.97,3.55,-73.262,15.947,37.922,0,237
20045,0.972,0.08,0.264,0.56,-0.35,3.76,-73.826,17.404,37.922,0,209
20066,0.964,0.084,0.272,0.49,-0.35,3.9,-73.553,17.163,37.922,0,197
20087,0.96,0.072,0.256,0.9,-0.14,3.27,-74.522,15.71,37.922,0,241
20108,0.944,0.072,0.26,0.97,0.07,3.06,-74.056,15.48,38.001,0,338
20129,0.944,0.072,0.256,1.46,-0.63,2.78,-74.273,15.71,37.838,0,400
20150,0.944,0.072,0.256,0.77,-0.49,2.99,-74.273,15.71,37.794,0,435
20170,0.944,0.076,0.252,0.77,-0.14,2.85,-73.974,16.86,37.751,0,451
20192,0.952,0.084,0.264,1.04,0.07,2.78,-73.974,16.86,37.708,0,341
20212,0.96,0.084,0.264,1.39,-0.14,2.78,-74.185,17.104,37.708,0,316
20233,0.96,0.084,0.264,1.25,-0.14,2.5,-73.908,17.651,37.708,0,298
20254,0.964,0.076,0.264,2.09,-0.28,2.5,-74.099,16.061,37.708,0,160
20275,0.96,0.076,0.252,3.06,0.14,2.5,-74.673,16.784,37.708,0,275
20295,0.948,0.072,0.264,2.99,-2.78,3.06,-73.905,15.256,37.802,0,376
20317,0.96,0.072,0.244,-2.16,1.25,2.43,-75.163,16.442,37.945,0,417
20337,0.936,0.088,0.24,0,-0.14,3.83,-74.426,15.947,37.981,0,447
20359,0.948,0.068,0.26,4.31,-1.74,2.09,-75.01,15.334,37.675,0,464
20379,0.968,0.076,0.244,2.02,0.42,2.99,-74.452,18.167,37.809,0,363
20400,0.968,0.084,0.26,0.83,0.63,2.43,-74.243,17.906,37.809,0,315
20421,0.964,0.092,0.252,1.53,0,2.23,-74.454,20.058,37.809,0,284
20442,0.956,0.092,0.252,2.09,-1.25,2.78,-74.331,20.058,37.809,0,259
20462,0.952,0.08,0.252,2.85,-1.53,2.92,-74.484,17.614,37.809,0,239
20484,0.952,0.068,0.248,2.5,-1.53,2.99,-74.89,15.334,37.787,0,329
20504,0.956,0.08,0.244,1.67,-0.83,3.13,-74.971,18.154,37.796,0,366
20525,0.956,0.072,0.236,1.95,-1.04,3.06,-73.595,14.037,37.86,0,385
20546,0.952,0.076,0.244,0.35,-0.49,3.55,-76,22.695,37.889,0,402
20567,0.964,0.08,0.26,2.57,-2.5,2.78,-74.247,17.104,37.724,0,306
20588,0.972,0.084,0.244,2.57,-2.02,2.85,-75.137,18.998,37.767,0,245
20609,0.972,0.092,0.256,1.81,-1.11,3.13,-74.37,19.769,37.767,0,209
20629,0.968,0.08,0.244,2.02,-0.56,2.85,-75.149,18.154,37.767,0,184
20651,0.96,0.084,0.252,2.3,-1.25,2.85,-74.539,18.436,37.767,0,173
20671,0.952,0.076,0.244,2.57,-2.3,2.71,-75.466,17.852,37.817,0,277
20691,0.952,0.076,0.24,3.48,-3.34,2.85,-75.433,19.027,37.911,0,315
20713,0.952,0.08,0.224,3.34,-2.57,3.27,-75.534,19.905,37.89,0,343
20733,0.952,0.084,0.244,3.55,-1.88,3.2,-74.839,18.998,37.797,0,340
20755,0.976,0.088,0.232,2.99,-1.04,3.2,-75.741,20.774,37.784,0,249
20775,0.98,0.092,0.248,1.67,-1.11,3.2,-74.901,20.355,37.742,0,185
20796,0.976,0.084,0.244,2.43,-1.6,2.71,-75.195,18.998,37.742,0,175
20817,0.972,0.096,0.236,3.06,-1.81,2.92,-75.318,22.137,37.742,0,170
20838,0.976,0.088,0.232,3.41,-1.04,2.85,-74.857,19.538,37.742,0,52
20859,0.96,0.084,0.24,3.69,0.35,2.23,-77.854,25.085,37.742,0,240
20880,0.968,0.092,0.172,0.21,-0.07,2.71,-74.443,18.972,37.714,0,268
20900,0.968,0.08,0.24,-0.56,0.56,1.46,-75.359,18.436,38.038,0,291
20922,0.956,0.104,0.212,0.21,1.25,3.55,-76.131,26.133,37.778,0,309
20942,0.98,0.084,0.24,4.52,-1.32,2.3,-75.46,19.291,37.89,0,260
20963,0.988,0.072,0.22,4.38,-1.32,2.09,-76.819,18.123,37.947,0,204
20984,0.984,0.096,0.24,2.3,-0.42,3.13,-75.287,21.803,37.947,0,184
21005,0.98,0.096,0.228,3.34,-1.46,3.2,-76.207,24.446,37.947,0,175
21026,0.988,0.104,0.224,3.48,-1.39,2.92,-76.223,25.303,37.947,0,165
21047,0.968,0.084,0.216,3.34,-0.7,2.3,-75.905,22.33,37.947,0,235
21067,0.968,0.08,0.224,2.09,-0.35,2.43,-76.2,19.655,37.856,0,272
21089,0.976,0.088,0.208,2.43,-0.07,2.85,-76.977,22.934,37.962,0,300
21109,0.972,0.092,0.236,1.81,0.42,2.92,-75.399,21.299,37.808,0,317
21130,0.976,0.104,0.204,0.42,0.97,3.13,-76.802,27.015,37.955,0,299
21151,0.98,0.092,0.236,2.78,-0.77,2.64,-75.514,21.299,37.618,0,232
21172,0.976,0.096,0.212,1.53,-0.56,3.13,-76.3,24.844,37.618,0,205
21193,0.98,0.104,0.228,1.18,0.7,3.97,-76.007,24.059,37.618,0,194
21214,0.984,0.096,0.22,1.39,1.46,2.78,-76.297,23.576,37.618,0,185
21234,0.972,0.088,0.216,0.49,2.43,3.06,-76.512,22.168,37.618,0,255
21256,0.964,0.088,0.212,-0.21,2.09,2.99,-76.612,22.545,37.842,0,325
21276,0.968,0.088,0.216,0.97,1.53,3.34,-76.459,22.168,37.948,0,378
21297,0.968,0.088,0.22,2.23,0.83,3.41,-76.251,21.803,37.899,0,410
21318,0.968,0.092,0.208,2.02,1.6,3.55,-76.783,23.862,37.885,0,418
21339,0.976,0.1,0.22,1.6,2.02,3.34,-76.251,26.998,37.772,0,333
21360,0.976,0.104,0.22,1.46,1.88,3.06,-76.153,24.446,37.772,0,293
21381,0.988,0.096,0.216,1.32,1.74,3.48,-76.3,24.844,37.772,0,291
21401,0.976,0.104,0.22,1.11,1.25,3.34,-76.006,25.303,37.772,0,272
21423,0.972,0.092,0.224,1.81,0.83,3.13,-76.016,22.33,37.772,0,310
21443,0.972,0.088,0.208,1.11,1.53,3.2,-76.925,22.934,37.794,0,388
21464,0.968,0.088,0.212,1.11,1.74,3.34,-76.666,22.545,37.871,0,446
21485,0.964,0.088,0.216,0.77,1.74,3.69,-76.404,22.168,37.815,0,518
21506,0.96,0.092,0.212,1.04,1.39,4.31,-74.971,22.622,37.752,0,376
21527,0.976,0.1,0.232,4.66,0.7,4.73,-78.2,28.075,37.697,0,392
21548,0.972,0.104,0.176,0,1.11,5.15,-76.297,23.576,37.697,0,355
21568,0.984,0.092,0.244,-0.63,1.18,2.92,-75.163,20.66,37.697,0,333
21590,0.964,0.104,0.2,-0.49,1.74,4.24,-76.844,27.476,37.697,0,320
21610,0.976,0.084,0.224,4.38,-0.77,2.92,-76.233,20.558,37.697,0,346
21630,0.984,0.076,0.204,3.76,0.77,2.43,-77.531,20.434,37.731,0,445
21652,0.976,0.088,0.216,1.32,3.06,3.41,-76.566,22.168,37.781,0,504
21672,0.976,0.088,0.204,1.74,2.57,3.48,-76.925,22.934,37.801,0,548
21694,0.976,0.088,0.208,2.3,1.18,3.06,-76.823,22.545,37.731,0,567
21714,0.98,0.092,0.212,2.09,1.32,3.27,-76.497,26.567,37.92,0,458
21735,0.972,0.096,0.216,1.67,1.67,3.76,-76.338,23.964,37.92,0,369
21756,0.972,0.092,0.212,0.56,2.5,3.76,-76.631,23.461,37.92,0,310
21777,0.984,0.092,0.236,1.67,1.88,4.17,-75.57,21.299,37.92,0,280
21798,0.972,0.08,0.216,0.77,3.27,4.03,-76.674,20.325,37.92,0,276
21819,0.976,0.088,0.22,2.16,2.43,2.99,-76.36,21.803,37.843,0,380
21839,0.964,0.084,0.216,1.39,2.43,2.85,-77.251,21.415,37.695,0,419
21861,0.968,0.092,0.212,0.97,1.95,3.27,-76.251,21.803,37.801,0,444
21881,0.972,0.088,0.22,1.11,2.71,3.27,-76.778,20.676,37.564,0,456
21902,0.976,0.088,0.216,1.39,3.62,3.13,-76.566,22.168,37.516,0,355
21923,0.976,0.088,0.22,1.6,4.03,2.78,-76.36,21.803,37.516,0,293
21944,0.976,0.092,0.224,1.53,4.38,2.78,-76.071,22.33,37.516,0,255
21965,0.972,0.092,0.22,1.6,3.83,3.34,-76.221,22.695,37.516,0,230
21986,0.976,0.092,0.22,1.88,3.83,3.55,-76.276,22.695,37.516,0,218
22006,0.964,0.084,0.216,2.5,3.41,3.34,-76.831,20.676,37.655,0,320
22028,0.972,0.084,0.22,1.74,2.85,3.41,-76.196,21.803,37.78,0,377
22048,0.968,0.088,0.22,2.02,2.64,3.48,-75.915,20.226,37.963,0,392
22070,0.972,0.084,0.224,1.81,2.23,3.62,-76.179,20.558,37.99,0,401
22090,0.976,0.088,0.228,2.16,2.37,5.22,-75.948,21.106,37.697,0,325
22111,0.972,0.088,0.224,1.25,2.16,2.85,-76.099,21.449,37.698,0,325
22132,0.984,0.092,0.232,3.27,1.67,2.57,-75.774,21.632,37.698,0,203
22153,0.968,0.088,0.236,1.53,1.6,2.71,-75.421,20.451,37.698,0,116
22174,0.976,0.084,0.224,5.22,0.97,2.57,-79.122,28.219,37.698,0,202
22195,0.968,0.092,0.2,0.35,2.71,3.06,-75.554,19.594,37.684,0,311
22215,0.968,0.084,0.252,-2.78,3.06,2.78,-75.9,20.558,37.864,0,366
22237,0.956,0.092,0.208,1.25,2.5,4.38,-76.623,23.862,37.815,0,401
22257,0.968,0.08,0.228,3.34,0.63,3.62,-75.99,19.336,37.725,0,429
22278,0.988,0.084,0.232,2.43,0.77,1.88,-75.984,19.905,37.822,0,381
22299,0.984,0.096,0.224,0.77,3.27,2.23,-76.095,23.2,37.962,0,323
22320,0.976,0.096,0.228,0.9,2.78,3.27,-75.782,22.835,37.962,0,298
22341,0.98,0.092,0.228,1.88,2.78,6.54,-75.698,21.976,37.962,0,275
22362,0.964,0.096,0.224,0.97,2.78,2.64,-76.207,24.446,37.962,0,241
22382,0.968,0.096,0.22,-0.07,3.55,3.55,-75.836,21.106,37.962,0,301
22404,0.956,0.068,0.212,0.35,4.38,3.48,-76.896,17.785,37.71,0,351
22424,0.964,0.084,0.244,0.28,3.34,3.2,-75.019,18.998,37.808,0,389
22445,0.968,0.076,0.212,0.28,5.22,3.41,-76.908,19.724,37.914,0,410
22466,0.964,0.088,0.24,0.28,3.27,3.62,-75.154,20.138,37.851,0,381
22487,0.976,0.084,0.236,0.63,2.64,3.2,-75.611,19.594,37.83,0,300
22508,0.98,0.096,0.236,-0.21,2.57,3.06,-75.662,21.632,37.83,0,264
22529,0.98,0.104,0.236,-0.49,2.85,3.2,-75.349,22.965,37.83,0,239
22549,0.98,0.096,0.232,-1.18,3.06,3.76,-75.375,22.137,37.83,0,224
22571,0.96,0.072,0.232,-0.77,2.23,3.34,-75.806,17.243,37.83,0,292
22591,0.964,0.076,0.232,-0.49,1.67,3.2,-75.794,18.139,37.85,0,354
22612,0.964,0.084,0.228,-0.42,1.95,3.41,-75.859,20.226,37.786,0,375
22633,0.96,0.08,0.228,-0.21,2.23,3.55,-75.878,19.336,37.62,0,394
22653,0.96,0.084,0.232,0.56,1.53,3.27,-75.591,19.905,37.687,0,389
22675,0.972,0.088,0.24,-0.14,1.11,3.55,-75.181,19.834,37.722,0,282
22695,0.972,0.088,0.236,0.28,1.18,3.76,-75.345,19.291,37.722,0,242
22716,0.964,0.088,0.236,-0.28,1.53,4.59,-75.497,19.594,37.722,0,226
22737,0.956,0.084,0.228,-1.39,1.74,5.36,-75.745,20.226,37.722,0,226
22758,0.984,0.072,0.24,0.9,0.7,2.64,-75.719,16.7,37.722,0,363
22779,0.96,0.08,0.24,-0.35,-0.21,3.48,-75.242,18.436,37.514,0,220
22800,0.96,0.08,0.24,3.76,-0.14,3.13,-75.242,18.436,37.47,0,377
22820,0.96,0.084,0.196,-0.56,1.46,3.62,-77.482,23.2,37.597,0,403
22842,0.968,0.072,0.24,-2.3,2.16,2.3,-74.869,18.713,37.488,0,389
22862,0.964,0.08,0.224,-0.63,2.37,3.55,-75.961,22.33,37.62,0,300
22884,0.96,0.104,0.236,2.02,-0.28,4.03,-74.869,18.713,37.62,0,263
22904,0.98,0.072,0.232,3.2,-0.7,2.64,-76.084,17.243,37.62,0,246
22925,0.972,0.088,0.236,1.39,1.25,3.83,-75.478,20.451,37.62,0,236
22946,0.956,0.08,0.224,0.49,1.6,4.45,-76.034,19.655,37.62,0,284
22967,0.988,0.08,0.224,1.95,0.83,3.34,-76.469,19.655,37.709,0,370
22987,0.972,0.076,0.224,1.25,1.32,3.34,-76.328,18.743,37.658,0,394
23009,0.956,0.072,0.228,1.04,1.67,3.41,-75.738,18.139,37.47,0,376
23029,0.968,0.072,0.228,0.07,2.5,3.2,-75.611,19.594,37.485,0,365
23051,0.972,0.08,0.216,1.39,2.09,2.92,-75.213,20.138,37.214,0,258
23071,0.976,0.084,0.224,2.23,3.41,2.85,-76.233,20.558,37.214,0,219
23092,0.972,0.092,0.24,0.35,3.34,3.06,-75.194,20.975,37.214,0,202
23113,0.976,0.076,0.24,1.74,2.43,2.37,-75.542,17.573,37.214,0,192
23134,0.972,0.08,0.236,0.83,2.23,2.57,-75.626,18.727,37.214,0,212
23155,0.968,0.084,0.24,0.97,3.27,2.23,-75.288,19.291,37.523,0,305
23176,0.968,0.08,0.22,0.35,3.9,2.43,-76.062,18.436,37.535,0,341
23196,0.964,0.068,0.228,0.63,3.2,1.6,-75.222,16.442,37.548,0,374
23218,0.964,0.072,0.24,-0.28,2.64,2.09,-75.534,16.967,37.534,0,380
23238,0.964,0.092,0.232,0.14,2.43,2.57,-75.491,21.632,37.535,0,298
23259,0.968,0.084,0.24,0.28,2.09,3.13,-75.288,19.291,37.535,0,251
23280,0.968,0.088,0.248,-0.14,1.67,3.13,-74.797,19.538,37.535,0,242
23301,0.972,0.088,0.244,0.28,1.04,2.85,-75.064,19.834,37.535,0,216
23322,0.972,0.092,0.244,-0.63,1.46,2.99,-74.988,20.66,37.535,0,210
23343,0.968,0.08,0.236,-1.67,1.81,3.2,-75.609,19.027,37.703,0,311
23363,0.968,0.072,0.232,-1.11,1.81,3.48,-75.851,18.139,37.548,0,440
23385,0.968,0.076,0.244,-0.35,0.97,3.41,-75.216,17.302,37.502,0,369
23405,0.964,0.08,0.256,-3.69,0.56,3.76,-74.458,17.355,37.563,0,305
23427,0.972,0.076,0.204,1.81,0.49,2.92,-77.382,20.434,37.478,0,325
23447,0.972,0.088,0.24,-3.48,2.09,3.55,-75.271,20.138,37.471,0,281
23468,0.98,0.072,0.26,-3.41,2.02,3.06,-74.614,15.48,37.471,0,259
23489,0.964,0.088,0.224,-0.42,2.02,4.17,-75.363,20.451,37.471,0,244
23510,0.972,0.08,0.248,2.5,0,3.27,-75.457,15.574,37.471,0,243
23531,0.972,0.06,0.232,0.83,0.83,2.02,-76.251,16.608,37.4,0,354
23552,0.972,0.076,0.236,0,1.88,2.71,-75.696,17.852,37.49,0,410
23572,0.976,0.064,0.236,0.49,1.67,2.5,-75.94,15.174,37.337,0,464
23593,0.972,0.068,0.24,1.25,1.6,2.02,-75.612,15.82,37.214,1,485
23614,0.968,0.08,0.24,0.77,1.81,2.3,-75.359,18.436,37.457,1,403
23634,0.972,0.088,0.24,-1.46,2.43,2.5,-75.271,20.138,37.477,1,310
23656,0.972,0.076,0.244,-0.07,2.85,2.43,-75.275,17.302,37.477,1,259
23676,0.972,0.076,0.248,0.42,1.6,2.16,-74.513,18.167,37.477,1,244
23698,0.972,0.08,0.228,-0.49,2.99,2.78,-75.628,20.774,37.477,1,236
23718,0.96,0.072,0.248,-0.49,1.81,2.92,-74.949,16.19,37.477,1,326
23739,0.964,0.076,0.236,-0.77,0.97,2.64,-75.582,17.852,37.394,1,372
23760,0.964,0.08,0.232,-2.3,1.6,2.43,-75.723,19.027,37.424,1,404
23781,0.968,0.072,0.24,-2.16,1.88,2.57,-75.493,16.7,37.302,1,429
23801,0.976,0.08,0.24,-1.67,2.02,2.23,-75.474,18.436,37.245,1,374
23823,0.98,0.072,0.244,-2.09,1.46,2.09,-75.216,17.302,37.28,1,310
23843,0.968,0.076,0.24,-1.46,1.11,2.16,-75.762,16.967,37.28,1,272
23865,0.964,0.08,0.244,-0.83,0.9,2.16,-74.81,18.713,37.28,1,265
23885,0.968,0.084,0.248,-0.97,0.83,2.43,-74.869,18.713,37.28,1,246
23906,0.964,0.072,0.244,-1.67,0.7,2.23,-75.222,16.442,37.28,1,309
23927,0.968,0.072,0.228,-2.37,1.04,2.64,-76.131,17.527,37.597,1,357
23948,0.964,0.08,0.228,-2.37,0.56,2.37,-75.934,19.336,37.287,1,415
23969,0.964,0.072,0.236,-0.56,-0.28,1.95,-75.649,16.967,37.365,1,515
23990,0.968,0.068,0.24,-0.35,-0.49,1.74,-74.703,16.536,37.35,1,265
24010,0.972,0.08,0.248,0.7,-0.07,2.09,-76.431,19.059,37.362,1,320
24032,0.976,0.084,0.18,-1.39,1.74,2.57,-75.685,20.774,37.362,1,286
24052,0.976,0.084,0.256,-3.83,1.6,1.88,-74.573,18.167,37.362,1,266
24073,0.96,0.084,0.216,-3.2,1.67,2.5,-76.433,21.252,37.362,1,260
24094,0.964,0.072,0.244,1.53,-0.35,2.43,-75.222,16.442,37.362,1,326
24115,0.976,0.068,0.216,1.39,1.32,0.97,-76.943,17.476,37.222,1,393
24136,0.98,0.072,0.236,-1.25,2.92,2.16,-75.874,16.967,37.108,1,437
24157,0.956,0.08,0.236,-1.46,2.71,2.37,-75.396,18.727,37.318,1,477
24177,0.96,0.076,0.232,0.14,1.39,2.37,-75.064,19.834,37.354,1,471
24199,0.98,0.084,0.236,-0.14,1.53,2.16,-75.345,19.291,37.344,1,361
24219,0.964,0.08,0.24,-1.39,2.16,2.43,-75.301,18.436,37.344,1,284
24241,0.968,0.08,0.24,-1.95,2.23,2.78,-75.359,18.436,37.344,1,233
24261,0.972,0.084,0.256,-2.5,1.46,2.78,-74.513,18.167,37.344,1,217
24282,0.972,0.072,0.24,-2.23,3.06,2.5,-75.55,16.7,37.344,1,257
24303,0.956,0.068,0.232,-0.49,1.32,2.23,-75.814,16.337,37.265,1,328
24324,0.968,0.076,0.232,-1.25,1.11,1.81,-75.649,16.967,37.278,1,362
24345,0.968,0.072,0.24,-1.67,0.9,1.81,-75.649,16.967,37.37,1,384
24366,0.968,0.076,0.248,-2.16,1.46,2.23,-75.265,18.154,37.349,1,388
24386,0.976,0.084,0.24,-1.46,2.02,2.16,-75.403,19.291,37.246,1,292
24408,0.976,0.08,0.236,-0.83,1.67,1.74,-75.683,18.727,37.246,1,258
24428,0.972,0.076,0.248,-0.49,1.32,1.88,-75.064,17.039,37.246,1,240
24449,0.972,0.076,0.236,-0.42,1.67,2.37,-75.696,17.852,37.246,1,229
24470,0.964,0.076,0.236,-1.32,2.43,2.71,-75.582,17.852,37.246,1,241
24491,0.96,0.072,0.236,-1.95,2.3,2.57,-75.242,18.436,37.216,1,318
24512,0.964,0.072,0.236,-2.71,2.5,2.64,-75.723,19.027,37.398,1,357
24532,0.968,0.076,0.228,-1.6,2.23,2.23,-75.281,16.442,37.46,1,500
24553,0.964,0.068,0.236,0.07,1.74,2.02,-75.712,16.075,37.283,1,293
24574,0.972,0.084,0.26,-1.25,1.46,2.23,-74.305,17.906,37.516,1,299
24595,0.976,0.08,0.192,-2.5,2.99,2.43,-77.975,22.622,37.516,1,273
24616,0.968,0.072,0.26,-3.13,3.34,1.74,-74.432,15.48,37.516,1,254
24637,0.96,0.08,0.244,-4.03,3.13,2.3,-75.031,18.154,37.516,1,245
24657,0.968,0.088,0.24,-0.56,1.11,3.48,-75.064,17.039,37.516,1,258
24679,0.968,0.064,0.244,1.11,1.88,1.95,-75.829,14.266,37.38,1,344
24699,0.972,0.068,0.24,-0.7,2.57,2.02,-74.493,15.48,37.543,1,389
24721,0.964,0.072,0.256,1.6,0.56,1.95,-74.583,15.71,37.379,1,424
24741,0.968,0.076,0.244,0.49,0.56,2.02,-75.216,17.302,37.322,1,456
24762,0.964,0.076,0.244,2.99,-0.21,1.04,-75.158,17.302,37.453,1,370
24783,0.972,0.088,0.236,0.63,1.04,1.32,-75.478,20.451,37.453,1,299
24804,0.972,0.072,0.252,0.97,1.74,1.25,-74.916,15.947,37.453,1,241
24824,0.972,0.08,0.236,0.63,2.37,1.18,-75.064,19.834,37.453,1,220
24846,0.964,0.084,0.264,-1.46,2.57,1.53,-75.031,18.154,37.453,1,219
24866,0.964,0.068,0.232,-0.42,2.37,1.25,-75.591,19.905,37.46,1,302
24888,0.956,0.08,0.24,-0.42,1.53,2.02,-75.183,18.436,37.559,1,332
24908,0.956,0.08,0.244,-0.63,1.46,2.85,-74.971,18.154,37.496,1,358
24929,0.968,0.084,0.236,-2.02,2.5,3.13,-75.497,19.594,37.757,1,366
24950,0.976,0.088,0.244,-3.13,3.2,3.55,-75.123,19.834,37.591,1,296
24971,0.976,0.088,0.248,-2.3,1.67,1.81,-74.916,19.538,37.641,1,236
24992,0.96,0.096,0.252,-2.85,1.11,4.24,-74.502,21.962,37.641,1,217
25013,0.964,0.096,0.252,-1.53,0.14,5.22,-74.661,18.436,37.641,1,210
25033,0.972,0.084,0.248,-0.63,0.28,3.41,-75.033,19.538,37.641,1,192
25055,0.964,0.08,0.248,-1.6,0.07,-0.35,-74.879,17.88,37.635,1,281
25075,0.964,0.076,0.228,-2.16,0.63,2.43,-76.007,18.436,37.429,1,330
25096,0.952,0.068,0.244,-0.56,-0.56,1.67,-75.106,15.574,37.473,1,449
25117,0.968,0.08,0.232,0,0.83,1.74,-75.78,19.027,37.43,1,276
25138,0.968,0.088,0.256,-0.77,0.9,2.3,-74.382,18.972,37.346,1,323
25159,0.968,0.084,0.204,-1.04,1.25,2.43,-74.721,18.436,37.436,1,271
25180,0.976,0.072,0.272,-3.97,2.92,2.16,-74.668,17.614,37.436,1,245
25200,0.948,0.088,0.24,-4.8,2.16,4.1,-74.789,21.478,37.436,1,235
25222,0.972,0.076,0.252,-0.49,0.49,3.41,-74.854,16.784,37.436,1,228
25242,0.972,0.056,0.232,0.14,1.32,1.74,-76.21,13.571,37.436,1,320
25263,0.972,0.084,0.248,-1.88,1.95,-1.25,-74.929,18.713,37.403,1,377
25284,0.952,0.08,0.248,-2.16,1.74,4.38,-74.697,17.88,37.162,1,418
25305,0.964,0.072,0.24,-0.14,0.28,3.76,-75.435,16.7,37.442,1,444
25326,0.968,0.088,0.236,-0.14,0.14,3.55,-75.359,18.436,37.414,1,401
25347,0.972,0.072,0.236,0,0.9,2.43,-75.663,16.7,37.336,1,302
25367,0.968,0.08,0.244,-2.02,1.74,0.56,-74.65,19.251,37.336,1,253
25389,0.984,0.08,0.232,-0.77,2.37,0.97,-76.002,19.027,37.336,1,232
25409,0.956,0.072,0.264,-3.62,2.37,3.83,-74.032,15.256,37.336,1,224
25430,0.968,0.076,0.22,-1.46,2.09,2.85,-76.485,19.059,37.336,1,290
25451,0.952,0.064,0.26,-0.83,0.14,2.09,-74.296,13.83,37.379,1,347
25472,0.968,0.068,0.232,-0.7,-0.21,-3.41,-75.983,16.337,37.301,1,377
25493,0.96,0.08,0.256,-0.83,0.9,2.57,-74.424,15.102,37.176,1,398
25513,0.944,0.052,0.244,0.28,-0.77,3.2,-75.09,18.154,37.336,1,386
25534,0.972,0.08,0.24,-0.07,-2.16,3.27,-75.154,20.138,37.37,1,313
25555,0.956,0.084,0.228,1.04,-2.99,3.06,-75.745,20.226,37.37,1,279
25576,0.964,0.088,0.22,1.88,-2.78,3.27,-76.196,21.803,37.37,1,250
25597,0.964,0.08,0.22,2.23,-0.83,2.99,-76.356,19.985,37.37,1,234
25618,0.956,0.072,0.236,1.88,-0.14,3.27,-75.534,16.967,37.37,1,288
25638,0.968,0.076,0.228,0.35,1.04,2.85,-76.062,18.436,37.196,1,416
25660,0.968,0.068,0.236,1.53,0.83,2.23,-75.983,16.337,37.365,1,332
25680,0.968,0.072,0.24,1.46,0.28,2.16,-75.069,15.334,37.283,1,357
25701,0.968,0.072,0.24,2.92,0.77,2.37,-77.632,23.2,37.465,1,417
25722,0.98,0.064,0.268,1.95,-1.11,2.09,-74.302,13.432,37.352,1,332
25743,0.968,0.088,0.24,-2.71,1.39,3.41,-75.213,20.138,37.352,1,297
25764,0.972,0.088,0.232,0.83,-0.42,3.62,-75.685,20.774,37.352,1,276
25785,0.984,0.076,0.236,4.17,-0.49,1.6,-75.863,17.852,37.352,1,270
25805,0.988,0.084,0.236,0.42,1.88,2.43,-75.778,19.594,37.352,1,306
25827,0.976,0.072,0.24,0.49,1.6,2.37,-75.881,16.075,37.482,0,394
25847,0.976,0.076,0.236,0.9,0.63,2.43,-75.99,19.336,37.383,0,431
25868,0.96,0.084,0.216,1.53,0.42,3.55,-76.239,22.168,37.388,0,445
25889,0.964,0.072,0.228,1.88,0.49,3.06,-76.076,17.527,37.403,0,435
25910,0.98,0.088,0.228,0.77,1.67,3.27,-76.003,21.106,37.326,0,317
25931,0.98,0.096,0.236,0.97,1.95,2.57,-75.433,22.137,37.326,0,269
25952,0.984,0.092,0.248,-0.42,2.43,2.64,-74.959,20.355,37.326,0,245
25972,0.972,0.088,0.212,-0.9,1.18,3.55,-76.719,22.545,37.326,0,230
25994,0.98,0.092,0.256,1.32,-0.35,2.92,-75.99,19.336,37.326,0,243
26014,0.968,0.08,0.216,0.56,-0.28,3.41,-75.892,21.106,37.405,0,330
26036,0.984,0.088,0.236,0.63,0.42,3.2,-75.929,19.905,37.178,0,369
26056,0.972,0.076,0.228,1.04,1.6,2.71,-76.117,18.436,37.398,0,392
26077,0.972,0.08,0.232,0.49,1.74,2.71,-75.836,19.027,37.316,0,406
26098,0.972,0.088,0.232,1.04,0.77,2.99,-75.685,20.774,37.403,0,325
26119,0.968,0.084,0.236,1.95,0.14,3.34,-75.497,19.594,37.403,0,282
26139,0.972,0.084,0.24,2.37,-0.35,3.9,-75.345,19.291,37.403,0,250
26161,0.972,0.084,0.228,1.81,0,3.76,-75.683,18.727,37.403,0,239
26181,0.972,0.084,0.228,1.67,0.77,3.34,-76.124,20.558,37.403,0,255
26202,0.968,0.084,0.224,1.25,0.83,3.41,-76.084,17.243,37.347,0,357
26223,0.972,0.076,0.24,2.37,0,2.92,-75.485,17.573,37.233,0,265
26244,0.972,0.076,0.232,3.97,-0.9,2.85,-75.907,18.139,37.214,0,403
26265,0.968,0.08,0.216,3.41,-3.27,3.13,-76.621,20.325,37.257,0,424
26286,0.988,0.072,0.232,1.32,-1.74,2.3,-76.193,17.243,37.398,0,352
26306,0.968,0.096,0.208,-0.83,-0.56,4.31,-76.691,24.777,37.384,0,309
26328,0.976,0.088,0.22,3.76,-2.92,2.99,-76.226,18.436,37.384,0,285
26348,0.988,0.072,0.22,3.97,-1.88,2.37,-76.262,21.449,37.384,0,273
26370,0.988,0.092,0.232,1.04,0.42,3.41,-76.086,21.976,37.384,0,275
26390,0.972,0.076,0.216,1.25,0.28,3.48,-76.75,19.386,37.384,0,370
26411,0.976,0.08,0.216,2.16,-0.14,3.34,-76.727,20.325,37.205,0,409
26432,0.96,0.08,0.212,2.23,-0.07,3.9,-76.725,20.676,37.175,0,420
26452,0.964,0.072,0.208,1.6,0.9,3.69,-77.144,19.095,37.342,0,410
26473,0.98,0.084,0.208,0.35,2.23,4.17,-77.113,21.993,37.19,0,340
26494,0.98,0.092,0.216,-0.9,2.43,4.45,-75.922,21.976,37.232,0,283
26515,0.984,0.088,0.216,-1.46,2.99,4.87,-77.151,25.203,37.232,0,252
26536,0.988,0.092,0.228,0.28,0.63,4.24,-75.517,19.291,37.232,0,237
26557,0.984,0.08,0.216,0.83,-0.42,3.62,-76.831,20.325,37.232,0,229
26577,0.976,0.088,0.224,0.83,-0.28,3.62,-76.154,21.449,37.232,0,311
26599,0.98,0.072,0.22,1.04,0.28,3.62,-76.716,18.123,37.108,0,355
26619,0.984,0.064,0.22,1.11,0.07,3.48,-76.898,16.221,37.111,0,382
26641,0.98,0.072,0.216,0.49,0,3.34,-76.926,18.436,36.967,0,408
26661,0.976,0.076,0.22,1.67,-0.9,3.27,-76.7,21.252,37.153,0,370
26682,0.98,0.084,0.216,1.32,-0.49,3.62,-76.779,20.325,37.181,0,312
26703,0.976,0.088,0.22,1.53,-0.9,3.34,-76.854,19.386,37.181,0,272
26724,0.98,0.084,0.208,1.67,-0.7,3.2,-77.113,21.993,37.181,0,250
26744,0.988,0.08,0.204,1.25,0,3.2,-77.501,21.415,37.181,0,241
26766,0.976,0.076,0.204,1.25,0.07,3.13,-77.432,20.434,37.181,0,413
26786,0.98,0.068,0.208,2.23,-0.35,2.99,-77.418,18.105,36.901,0,250
26807,0.976,0.076,0.22,1.6,-0.63,3.06,-76.592,19.059,36.893,0,369
26828,0.984,0.072,0.164,2.92,0,2.99,-79.094,24.946,37.006,0,414
26849,0.976,0.068,0.212,0.63,0.21,2.71,-76.193,17.243,37.071,0,398
26870,0.984,0.076,0.228,-1.74,1.88,2.99,-77.844,24.625,36.914,0,325
26891,0.98,0.096,0.208,0.21,1.32,4.24,-76.848,24.777,36.914,0,296
26911,0.992,0.068,0.204,3.34,-0.21,2.37,-77.775,18.436,36.914,0,278
26933,0.988,0.076,0.204,2.23,2.23,2.09,-77.58,20.434,36.914,0,276
26953,0.984,0.08,0.204,-0.14,3.97,2.64,-77.451,21.415,36.914,0,343
26974,0.984,0.072,0.204,0.63,3.2,2.57,-77.606,19.441,37.231,0,405
26995,0.98,0.076,0.216,1.18,2.43,2.37,-77.719,22.205,36.97,0,431
27016,0.968,0.08,0.208,0.97,2.23,2.37,-77.068,20.073,37.042,0,428
27037,0.968,0.072,0.212,1.53,2.5,3.13,-76.494,20.899,36.996,0,400
27058,0.992,0.088,0.22,1.46,2.5,2.92,-76.572,21.803,37.2,0,308
27078,0.992,0.08,0.212,1.6,3.9,2.43,-77.139,20.676,37.2,0,272
27100,0.98,0.088,0.212,0.77,3.48,3.06,-76.823,22.545,37.2,0,252
27120,0.98,0.08,0.212,2.23,3.62,2.5,-76.987,20.676,37.2,0,241
27141,0.98,0.08,0.208,0.63,3.83,2.92,-77.194,21.039,37.2,0,282
27162,0.98,0.084,0.212,-0.14,4.8,2.3,-77.038,20.676,37.217,0,356
27183,0.98,0.072,0.2,0.21,6.19,2.43,-77.086,18.76,36.951,0,386
27204,0.976,0.076,0.212,0,6.26,2.16,-76.539,19.059,37.255,0,410
27225,0.972,0.076,0.22,1.32,4.94,1.32,-76.539,19.059,37.055,0,421
27245,0.98,0.08,0.224,1.25,4.38,1.74,-76.363,19.655,37.064,0,336
27267,0.976,0.084,0.224,0.97,4.24,2.16,-76.233,20.558,37.064,0,307
27287,0.972,0.088,0.22,1.6,3.55,2.3,-76.306,21.803,37.064,0,284
27308,0.988,0.084,0.22,1.11,3.48,2.71,-76.599,20.899,37.064,0,274
27329,0.988,0.092,0.224,0.28,3.48,2.71,-76.779,20.325,37.064,0,294
27350,0.976,0.076,0.212,0.21,2.85,2.64,-76.621,20.325,37.278,0,473
27370,0.976,0.072,0.22,1.81,2.43,2.64,-76.465,19.985,37.266,0,303
27392,0.96,0.08,0.24,1.6,1.39,2.99,-75.242,18.436,37.386,0,385
27412,0.972,0.084,0.176,2.09,2.16,2.5,-78.661,25.516,37.149,0,428
27433,0.984,0.076,0.232,-0.21,2.99,2.5,-76.072,18.139,37.52,0,345
27454,0.968,0.084,0.232,-1.67,2.99,2.37,-75.706,19.905,37.52,0,316
27474,0.968,0.096,0.216,1.04,2.64,3.27,-76.283,23.964,37.52,0,301
27496,0.98,0.084,0.228,4.24,0.97,2.09,-75.947,19.027,37.52,0,295
27516,0.988,0.088,0.224,2.3,2.85,2.02,-76.341,20.558,37.52,0,307
27538,0.976,0.088,0.22,1.25,3.83,3.27,-76.179,20.558,37.548,0,399
27558,0.976,0.088,0.22,2.09,2.71,3.06,-76.36,21.803,37.478,0,442
27579,0.972,0.088,0.22,2.37,1.67,2.71,-76.306,21.803,37.27,0,467
27600,0.96,0.084,0.22,2.64,1.6,2.78,-76.223,20.899,37.494,0,462
27621,0.968,0.084,0.232,1.67,2.37,3.06,-75.706,19.905,37.23,0,358
27641,0.976,0.08,0.224,1.53,2.71,2.99,-76.309,19.655,37.216,0,298
27663,0.976,0.088,0.236,2.3,3.62,2.5,-76.413,21.803,37.216,0,269
27683,0.98,0.092,0.208,0.97,4.59,2.85,-75.782,22.835,37.216,0,256
27705,0.98,0.092,0.232,1.32,4.1,3.2,-76.155,19.336,37.216,0,242
27725,0.972,0.088,0.224,0.28,3.83,2.92,-76.099,21.449,37.245,0,338
27746,0.972,0.084,0.24,-1.11,4.87,3.06,-75.345,19.291,37.494,0,382
27767,0.972,0.08,0.228,-0.49,5.01,2.85,-76.046,19.336,37.43,0,409
27788,0.972,0.08,0.232,-1.39,5.15,3.41,-75.836,19.027,37.609,0,430
27808,0.976,0.088,0.248,-0.49,5.08,2.78,-74.916,19.538,37.317,0,352
27830,0.98,0.092,0.228,-0.42,6.82,3.06,-75.399,21.299,37.331,0,291
27850,0.976,0.092,0.24,-1.74,9.25,2.92,-75.462,22.965,37.331,0,267
27872,0.972,0.092,0.244,-2.64,10.09,2.71,-74.226,19.488,37.331,0,244
27892,0.972,0.084,0.252,-2.23,8.77,2.3,-74.721,18.436,37.331,0,229
27914,0.952,0.076,0.244,-1.95,6.96,2.02,-74.979,17.302,37.331,0,325
27934,0.952,0.076,0.24,-1.88,5.22,2.02,-75.193,17.573,37.635,0,413
27955,0.956,0.072,0.24,0.07,3.27,1.95,-75.319,16.7,37.735,0,423
27976,0.956,0.076,0.248,0.83,1.81,2.57,-74.825,17.039,37.566,0,290
27997,0.964,0.084,0.252,1.53,1.25,2.99,-76.906,21.993,37.623,0,368
28017,0.96,0.088,0.208,-0.7,0.14,3.69,-74.794,16.784,37.496,0,309
28039,0.968,0.068,0.256,-2.16,-1.67,2.23,-74.583,15.71,37.496,0,275
28059,0.956,0.1,0.232,0.7,-1.32,3.48,-75.203,23.319,37.496,0,256
28081,0.968,0.092,0.248,4.59,-3.34,3.97,-74.722,20.355,37.496,0,247
28101,0.964,0.06,0.228,2.92,-1.04,3.48,-76.263,14.745,37.496,0,337
28122,0.972,0.06,0.24,2.23,-0.14,2.92,-75.726,14.037,37.608,0,405
28143,0.972,0.072,0.232,1.11,-0.42,3.06,-75.974,17.243,37.533,0,456
28164,0.968,0.068,0.24,1.95,-1.04,2.85,-75.582,17.852,37.714,0,480
28185,0.952,0.076,0.228,2.02,-0.49,2.92,-75.246,20.451,37.573,0,425
28206,0.96,0.088,0.244,0.97,0.49,3.2,-74.748,20.66,37.688,0,300
28226,0.972,0.08,0.24,1.53,0.7,2.78,-75.417,18.436,37.688,0,241
28248,0.984,0.088,0.244,0.77,0,2.64,-75.238,19.834,37.688,0,212
28268,0.984,0.088,0.24,1.18,1.74,2.5,-75.443,20.138,37.688,0,201
28289,0.956,0.076,0.244,1.11,0.28,3.06,-75.039,17.302,37.688,0,274
28310,0.964,0.072,0.244,0.9,0.07,2.92,-75.222,16.442,37.664,0,348
28331,0.96,0.08,0.236,0.35,0.14,2.57,-75.275,17.302,37.667,0,390
28351,0.968,0.08,0.244,-0.07,0.97,2.85,-75.288,19.291,37.589,0,418
28372,0.964,0.08,0.228,0.35,0.83,2.78,-75.359,18.436,37.49,0,417
28393,0.964,0.084,0.244,0.83,0.7,2.71,-75.019,18.998,37.559,0,320
28414,0.964,0.088,0.24,0.77,0.97,2.64,-75.154,20.138,37.559,0,280
28435,0.968,0.084,0.236,1.11,0.77,2.78,-75.497,19.594,37.559,0,250
28455,0.972,0.088,0.236,1.67,0.49,2.71,-75.478,20.451,37.559,0,249
28477,0.968,0.08,0.232,1.11,0.42,2.71,-75.78,19.027,37.559,0,295
28497,0.964,0.08,0.236,1.32,0.63,2.85,-76.117,18.436,37.4,0,361
28518,0.96,0.076,0.232,0.63,0.9,3.2,-75.454,18.727,37.632,0,404
28539,0.964,0.072,0.232,0.49,0.83,3.83,-75.851,18.139,37.7,0,442
28560,0.948,0.068,0.24,0.83,0.63,8.07,-75.263,15.82,37.702,0,515
28581,0.98,0.088,0.244,1.81,-0.83,3.2,-75.181,19.834,37.555,0,207
28602,0.984,0.092,0.24,3.83,-1.11,2.57,-75.366,20.975,37.555,0,272
28622,0.964,0.092,0.2,-0.21,0.49,3.48,-77.142,24.704,37.555,0,246
28644,0.972,0.072,0.256,-1.04,0.14,2.09,-74.704,15.71,37.555,0,231
28664,0.96,0.088,0.228,-0.49,0.9,3.13,-76.135,19.985,37.555,0,262
28686,0.952,0.088,0.228,2.99,-1.67,3.48,-75.794,18.139,37.701,0,353
28706,0.972,0.068,0.224,4.1,-1.81,1.81,-76.465,16.888,37.59,0,400
28727,0.972,0.076,0.228,1.81,0.49,2.64,-76.117,18.436,37.421,0,434
28748,0.96,0.08,0.224,2.02,0.14,4.45,-76.09,19.655,37.339,0,456
28769,0.956,0.08,0.228,3.06,-1.39,6.12,-75.821,19.336,37.452,0,360
28789,0.996,0.088,0.232,4.8,-0.97,1.95,-76.017,20.774,37.452,0,289
28811,0.988,0.088,0.236,0.7,0.83,2.78,-75.704,20.451,37.452,0,223
28831,0.968,0.076,0.244,2.92,0.14,2.16,-75.127,16.19,37.452,0,181
28853,0.976,0.076,0.232,4.24,-2.37,2.57,-74.6,18.436,37.452,0,180
28873,0.956,0.076,0.22,7.72,-2.85,8.77,-76.322,19.059,37.677,0,271
28894,0.96,0.088,0.216,4.87,-5.01,5.77,-76.35,22.168,37.237,0,317
28915,0.98,0.088,0.208,4.87,-3.83,7.44,-77.028,22.934,37.335,0,342
28936,0.988,0.084,0.2,0.83,-1.53,5.08,-77.622,22.784,37.446,0,345
28957,0.988,0.088,0.216,-1.32,0.9,3.48,-76.723,22.168,37.19,0,270
28978,0.984,0.076,0.216,-2.02,2.78,3.83,-77.113,21.993,37.19,0,227
28998,0.976,0.08,0.22,-1.81,2.92,3.69,-76.595,21.252,37.19,0,207
29020,0.964,0.08,0.22,-1.18,2.3,3.27,-76.697,21.616,37.19,0,193
29040,0.968,0.072,0.216,-0.42,2.64,3.34,-76.77,18.436,37.19,0,190
29061,0.968,0.068,0.212,-1.32,3.62,3.62,-77.053,17.785,37.143,0,277
29082,0.968,0.068,0.22,-1.04,3.9,3.69,-76.625,17.177,37.159,0,323
29103,0.98,0.06,0.22,-1.39,3.76,3.34,-76.907,15.256,37.15,0,349
29124,0.972,0.068,0.224,-1.32,3.13,2.85,-76.465,16.888,37.078,0,364
29145,0.984,0.076,0.228,-1.46,2.71,2.5,-76.287,20.558,37.249,0,290
29165,0.98,0.08,0.22,-1.18,2.57,2.5,-76.309,19.655,37.297,0,260
29187,0.972,0.084,0.22,-0.21,2.16,3.27,-76.452,17.82,37.297,0,293
29207,0.976,0.076,0.232,-1.04,1.88,3.34,-75.962,18.139,37.297,0,83
29229,0.976,0.072,0.212,2.43,1.88,3.55,-77.086,18.76,37.297,0,192
29249,0.968,0.068,0.204,-2.5,3.2,3.62,-77.481,18.436,37.297,0,298
29270,0.964,0.064,0.236,-4.45,3.41,2.23,-75.772,15.174,37.132,0,354
29291,0.96,0.072,0.192,-1.39,3.83,3.76,-77.949,20.558,36.951,0,393
29312,0.96,0.076,0.216,1.67,1.32,3.48,-76.966,15.525,36.91,0,423
29333,0.98,0.06,0.22,1.74,1.67,2.09,-76.738,15.947,37.05,0,365
29353,0.992,0.072,0.228,-0.35,3.76,2.23,-75.984,19.905,36.91,0,320
29374,0.988,0.084,0.236,0.77,2.99,2.43,-75.778,19.594,36.91,0,302
29395,0.98,0.08,0.232,2.37,1.81,2.3,-75.947,19.027,36.91,0,287
29416,0.972,0.084,0.232,2.09,1.88,2.57,-75.762,19.905,36.91,0,256
29436,0.96,0.068,0.216,0.63,2.23,2.57,-76.733,17.476,36.91,0,316
29458,0.96,0.064,0.228,0.21,2.37,2.85,-76.149,15.681,37.092,0,347
29478,0.964,0.06,0.216,1.25,1.88,2.64,-75.435,16.7,36.968,0,372
29500,0.964,0.072,0.232,1.81,3.27,2.99,-76.717,18.436,37.275,0,390
29520,0.964,0.072,0.212,0.21,2.16,3.76,-75.332,17.302,37.036,0,343
29541,0.972,0.068,0.236,2.02,1.81,2.99,-75.825,16.075,37.164,0,280
29562,0.98,0.084,0.236,0.35,1.6,3.06,-75.667,19.594,37.164,0,244
29583,0.98,0.084,0.24,-0.49,2.16,3.2,-75.46,19.291,37.164,0,225
29604,0.988,0.072,0.232,-0.7,2.37,3.27,-76.193,17.243,37.164,0,210
29625,0.968,0.064,0.228,-0.77,1.67,3.13,-76.259,15.681,37.164,0,290
29645,0.96,0.068,0.228,0,0.83,2.85,-76.31,15.947,36.914,0,349
29667,0.956,0.064,0.228,0.21,0.97,3.06,-76.449,18.123,37.084,0,385
29687,0.96,0.064,0.228,0.35,1.04,3.06,-76.904,16.506,37.103,0,406
29708,0.972,0.076,0.224,0.21,1.04,3.41,-76.328,18.743,37.19,0,387
29729,0.976,0.076,0.236,0.35,1.25,3.34,-75.752,17.852,37.316,0,311
29750,0.98,0.08,0.228,0.28,0.83,3.41,-76.155,19.336,37.316,0,257
29771,0.98,0.08,0.232,-0.49,1.11,3.76,-75.947,19.027,37.316,0,239
29792,0.972,0.08,0.228,-0.56,1.81,3.55,-76.046,19.336,37.316,0,227
29812,0.968,0.064,0.224,0.14,0.97,3.27,-76.263,14.745,37.316,0,429
29834,0.968,0.064,0.232,0.07,0.83,3.34,-76.044,15.423,36.98,0,237
29854,0.964,0.072,0.248,0.63,0.42,3.27,-75.499,14.933,37.087,0,369
29875,0.968,0.072,0.188,0.63,0.21,2.99,-78.257,20.957,36.93,0,406
29896,0.976,0.068,0.24,-3.2,2.16,2.64,-75.669,15.82,37.094,0,416
29917,0.98,0.068,0.224,-0.97,3.55,2.64,-76.571,16.888,36.982,0,325
29938,0.972,0.088,0.232,0.7,1.25,4.31,-75.685,20.774,36.982,0,296
29959,0.984,0.06,0.236,3.34,-0.35,2.23,-76.106,14.266,36.982,0,283
29979,0.98,0.068,0.228,2.02,1.18,2.02,-76.017,18.139,36.982,0,279
30001,0.984,0.072,0.228,0.21,3.06,3.2,-76.571,16.888,36.982,0,332
30021,0.98,0.068,0.22,0.83,2.09,3.13,-76.154,15.423,37.191,0,423
30042,0.964,0.064,0.224,2.16,1.53,2.85,-76.42,15.947,36.957,0,454
30063,0.968,0.064,0.22,0.97,1.74,2.71,-76.689,16.221,37.235,0,438
30084,0.96,0.064,0.228,-0.83,1.88,2.99,-76.149,15.681,37.219,0,412
30105,0.976,0.064,0.232,0.97,2.5,2.85,-76.154,15.423,37.336,0,299
30126,0.976,0.08,0.252,1.11,1.74,2.71,-74.848,17.614,37.336,0,257
30146,0.976,0.076,0.22,-0.42,2.02,3.06,-75.639,17.852,37.336,1,241
30168,0.98,0.068,0.244,0.56,0.7,2.37,-75.727,14.933,37.336,1,232
30188,0.976,0.068,0.22,0.28,0.63,2.57,-76.794,16.221,37.336,1,252
30210,0.972,0.068,0.228,-1.74,1.32,2.99,-76.251,16.608,36.781,1,325
30230,0.98,0.064,0.236,-1.81,0.7,3.27,-75.996,15.174,37.134,1,359
30251,0.976,0.06,0.236,-0.97,0.63,2.71,-75.997,14.266,36.879,1,376
30272,0.964,0.068,0.232,-1.25,0.9,2.43,-75.927,16.337,36.887,1,386
30292,0.972,0.068,0.232,-0.97,0.83,2.16,-76.038,16.337,36.897,1,313
30314,0.972,0.072,0.224,-2.02,1.25,2.64,-75.818,16.967,36.897,1,281
30334,0.976,0.072,0.232,-1.46,1.04,2.85,-75.599,17.573,36.897,1,256
30355,0.98,0.068,0.236,-0.97,0.83,2.57,-75.542,17.573,36.897,1,255
30376,0.972,0.068,0.224,-1.25,0.77,2.5,-76.465,16.888,36.897,1,260
30397,0.976,0.068,0.22,-1.74,0,2.64,-76.731,17.177,37.058,1,326
30417,0.968,0.064,0.224,-2.92,0.35,2.71,-76.474,15.947,36.945,1,364
30439,0.964,0.068,0.224,-2.3,0.7,3.13,-76.356,16.888,36.87,1,394
30459,0.972,0.064,0.224,-0.42,0.07,2.71,-76.528,15.947,37.085,1,520
30481,0.98,0.068,0.232,-0.77,0.07,2.37,-75.719,16.7,36.839,1,223
30501,0.98,0.072,0.24,1.74,-0.21,2.37,-77.581,18.436,36.791,1,298
30522,0.972,0.076,0.164,-1.88,1.32,3.27,-77.508,19.441,36.791,1,276
30543,0.976,0.068,0.248,-3.13,0.7,1.95,-75.245,15.334,36.791,1,266
30564,0.972,0.084,0.208,-1.74,0.56,3.27,-77.01,21.993,36.791,1,263
30585,0.972,0.072,0.224,1.11,-0.21,3.06,-76.398,17.82,36.769,1,351
30606,0.98,0.052,0.208,2.09,1.04,1.32,-77.665,14.037,36.87,1,395
30626,0.984,0.068,0.224,-0.14,1.88,1.32,-76.624,16.888,36.567,1,432
30648,0.984,0.064,0.224,-0.77,1.88,1.95,-76.587,14.996,36.974,1,462
30668,0.972,0.076,0.224,0.14,0.9,2.37,-76.436,18.743,37.044,1,409
30690,0.972,0.076,0.212,0.21,0.63,2.02,-76.961,19.724,37.003,1,343
30710,0.964,0.072,0.224,-0.83,1.11,2.71,-76.289,17.82,37.003,1,282
30731,0.972,0.064,0.22,-0.83,1.25,2.92,-76.742,16.221,37.003,1,240
30752,0.984,0.064,0.216,-1.67,1.74,2.99,-77.11,16.506,37.003,1,222
30773,0.976,0.068,0.232,-2.78,2.99,3.13,-76.093,16.337,37.003,1,301
30793,0.98,0.064,0.208,-1.46,3.13,2.71,-77.486,17.104,36.841,1,344
30815,0.972,0.056,0.232,-1.18,2.16,2.78,-76.643,14.037,36.726,1,365
30835,0.972,0.06,0.22,-2.64,1.95,2.78,-76.914,15.525,36.522,1,380
30857,0.992,0.076,0.236,-2.92,1.95,2.64,-75.973,17.852,36.685,1,334
30877,0.98,0.068,0.236,-2.64,2.43,2.57,-75.936,16.075,36.788,1,284
30898,0.976,0.064,0.228,-0.9,2.16,2.3,-76.367,15.681,36.788,1,253
30919,0.972,0.068,0.232,-1.39,2.43,2.02,-76.038,16.337,36.788,1,236
30940,0.976,0.072,0.228,-1.74,2.64,2.23,-76.241,17.527,36.788,1,224
30961,0.968,0.06,0.228,-1.74,2.43,2.64,-76.317,14.745,36.788,1,303
30982,0.972,0.064,0.232,-1.53,2.09,2.92,-76.044,15.423,36.71,1,342
31002,0.964,0.072,0.228,-1.18,1.81,2.57,-76.313,15.681,36.726,1,356
31024,0.968,0.068,0.224,-2.16,2.16,2.43,-76.411,16.888,36.691,1,372
31044,0.98,0.064,0.224,-2.85,1.95,2.71,-76.634,15.947,36.648,1,342
31066,0.98,0.068,0.232,-1.6,1.39,2.85,-76.148,16.337,36.806,1,399
31086,0.98,0.072,0.228,-0.35,2.09,2.37,-76.295,17.527,36.806,1,163
31107,0.976,0.076,0.244,-0.42,1.95,2.78,-75.332,17.302,36.806,1,256
31128,0.988,0.068,0.176,-2.23,2.99,2.78,-76.571,16.888,36.806,1,244
31149,0.972,0.044,0.248,-3.48,3.34,1.6,-75.438,12.031,36.806,1,312
31169,0.956,0.064,0.232,-3.9,3.55,2.43,-76.825,18.76,36.517,1,371
31191,0.972,0.06,0.236,-0.63,1.32,2.85,-75.941,14.266,36.56,1,406
31211,0.98,0.048,0.216,1.18,2.78,1.6,-77.283,12.53,36.889,1,427
31233,0.984,0.064,0.236,-0.77,4.24,2.02,-76.05,15.174,36.56,1,428
31253,0.98,0.072,0.24,-1.04,3.62,2.23,-75.663,16.7,36.822,1,369
31273,0.984,0.068,0.236,-0.49,2.64,2.43,-75.991,16.075,36.822,1,350
31295,0.972,0.068,0.236,-0.21,1.6,2.23,-76.02,17.527,36.822,1,322
31315,0.972,0.068,0.232,-0.63,1.53,1.95,-75.649,16.967,36.822,1,283
31337,0.964,0.064,0.232,-1.53,2.02,2.71,-76.263,13.801,36.822,1,317
31357,0.968,0.056,0.224,-1.74,1.53,2.92,-76.59,14.037,36.708,1,365
31378,0.968,0.06,0.252,-2.99,1.25,2.99,-75.024,13.393,36.673,1,402
31399,0.968,0.052,0.212,-1.25,0.7,2.16,-77.298,13.783,36.725,1,429
31420,0.952,0.064,0.224,-1.39,-0.21,3.13,-76.255,15.947,36.891,1,437
31441,0.976,0.076,0.224,0.35,-1.46,0.35,-76.382,18.743,36.768,1,342
31462,0.968,0.064,0.244,-1.81,-0.56,4.17,-76.101,14.501,36.768,1,314
31482,0.976,0.064,0.232,-1.6,0,3.48,-75.947,19.027,36.768,1,294
31504,0.984,0.072,0.232,-1.46,0.97,2.92,-76.084,17.243,36.768,1,280
31524,0.964,0.06,0.224,-0.28,1.11,2.16,-76.48,14.996,36.768,1,314
31545,0.964,0.056,0.232,-1.25,1.46,2.43,-76.1,13.571,36.733,1,377
31566,0.968,0.052,0.232,-1.39,1.46,2.92,-76.206,12.634,36.63,1,399
31587,0.968,0.056,0.228,-1.04,2.02,2.99,-76.373,13.801,36.544,1,406
31608,0.972,0.056,0.228,-1.11,1.74,2.09,-76.427,13.801,36.444,1,406
31629,0.984,0.056,0.236,-2.16,1.74,-0.9,-76.518,16.888,36.595,1,299
31649,0.976,0.076,0.228,-1.11,2.23,2.43,-76.099,15.423,36.595,1,347
31671,0.964,0.056,0.228,0.63,2.3,2.5,-75.941,14.266,36.595,1,150
31691,0.976,0.072,0.24,0.77,2.64,2.78,-75.607,16.7,36.595,1,201
31713,0.968,0.064,0.196,0.42,2.23,3.2,-77.981,18.085,36.595,1,222
31733,0.968,0.036,0.244,0.35,2.37,2.02,-75.711,8.394,36.822,1,315
31754,0.956,0.064,0.208,-4.1,4.1,3.55,-77.181,17.104,36.674,1,360
31775,0.968,0.068,0.22,0.21,1.67,3.41,-76.625,17.177,36.658,1,383
31796,0.976,0.04,0.232,2.09,2.37,2.09,-76.728,10.924,36.752,1,407
31816,0.984,0.068,0.24,-0.07,3.48,2.02,-75.525,13.602,36.647,1,324
31838,0.984,0.06,0.244,-0.14,2.64,-1.67,-75.655,17.573,36.647,1,289
31858,0.972,0.08,0.228,-1.74,2.64,2.02,-76.046,19.336,36.647,1,254
31880,0.964,0.06,0.228,1.04,1.74,2.57,-76.263,14.745,36.647,1,222
31900,0.972,0.072,0.244,-0.07,1.81,2.57,-75.339,16.442,36.647,1,187
31921,0.968,0.06,0.228,-1.25,2.5,3.06,-76.317,14.745,36.809,1,252
31942,0.972,0.056,0.224,-1.11,3.06,2.43,-76.643,14.037,36.814,1,286
31963,0.956,0.064,0.244,-2.37,3.62,2.71,-74.734,15.102,36.693,1,304
31984,0.956,0.068,0.228,-1.25,4.31,3.55,-76.75,19.724,36.797,1,332
32005,0.968,0.084,0.244,-0.21,3.13,2.02,-75.243,16.19,36.742,1,262
32025,0.972,0.072,0.24,0.42,2.3,2.02,-75.55,16.7,36.756,1,217
32047,0.98,0.06,0.244,-0.07,2.78,2.37,-75.625,13.816,36.756,1,196
32067,0.976,0.06,0.248,-0.35,2.43,2.23,-75.355,13.602,36.756,1,184
32088,0.968,0.064,0.244,0.9,0.42,2.16,-75.4,14.698,36.756,1,181
32109,0.952,0.052,0.232,1.95,-0.77,2.57,-75.983,12.634,36.769,1,283
32130,0.96,0.052,0.224,0.9,-0.28,3.06,-76.095,12.634,36.732,1,341
32150,0.964,0.056,0.224,1.6,0.21,2.78,-76.263,13.801,36.771,1,361
32172,0.964,0.06,0.236,0.97,0.83,2.85,-75.994,13.35,37.101,1,377
32192,0.976,0.064,0.236,-0.07,1.04,2.78,-75.94,15.174,36.764,1,322
32214,0.976,0.06,0.236,0.7,0.63,1.95,-75.997,14.266,36.74,1,328
32234,0.972,0.068,0.24,1.67,0.28,2.64,-75.612,15.82,36.74,1,201
32254,0.972,0.064,0.244,0.56,0.97,2.99,-75.457,14.698,36.74,1,161
32276,0.98,0.072,0.228,2.09,2.23,2.43,-76.295,17.527,36.74,1,222
32296,0.96,0.056,0.256,1.74,-0.63,1.6,-74.827,9.606,36.74,1,310
32317,0.972,0.052,0.228,-2.92,1.88,2.43,-76.322,19.059,36.746,1,366
32338,0.952,0.072,0.216,0.9,-0.77,2.78,-75.655,16.075,36.912,1,401
32359,0.972,0.064,0.232,3.55,-0.9,1.74,-76.099,15.423,37.016,1,425
32380,0.98,0.076,0.24,0.7,0.7,2.3,-75.599,17.573,36.914,1,394
32401,0.992,0.076,0.244,0.35,1.6,1.88,-75.559,17.302,36.776,1,334
32421,0.98,0.08,0.24,0.28,1.53,1.81,-75.531,18.436,36.776,0,313
32443,0.968,0.076,0.236,1.6,0.77,2.23,-75.639,17.852,36.776,0,280
32463,0.964,0.068,0.232,1.6,0.77,2.16,-75.706,16.967,36.776,0,245
32484,0.968,0.06,0.232,0.97,1.18,2.57,-76.251,16.608,36.776,0,294
32505,0.968,0.068,0.232,1.53,1.32,2.57,-76.197,16.608,36.92,0,337
32526,0.96,0.06,0.26,0.21,1.6,2.43,-74.472,12.996,36.657,0,370
32547,0.956,0.072,0.216,-1.11,0.7,3.55,-76.609,18.436,36.856,0,389
32568,0.972,0.068,0.24,1.67,-0.77,3.41,-75.612,15.82,36.815,0,375
32588,0.976,0.08,0.228,0.83,-0.14,3.83,-76.101,19.336,36.879,0,297
32610,0.984,0.072,0.248,0.63,0.35,3.83,-75.301,16.19,36.879,0,259
32630,0.988,0.072,0.224,-0.21,1.67,3.97,-76.017,18.139,36.879,0,238
32652,0.98,0.076,0.24,-0.49,0.9,3.48,-76.002,19.027,36.879,0,229
32672,0.972,0.072,0.236,-0.28,0.83,3.06,-76.356,16.888,36.879,0,284
32693,0.96,0.06,0.228,0.28,0.14,3.55,-76.208,14.745,36.789,0,359
32714,0.96,0.064,0.224,0.35,-0.42,3.76,-76.365,15.947,37.034,0,386
32735,0.96,0.064,0.224,0.97,-0.56,3.83,-76.365,15.947,36.784,0,403
32755,0.96,0.06,0.216,1.53,-0.97,3.76,-76.862,15.525,36.797,0,407
32777,0.976,0.072,0.224,0.97,-1.25,3.69,-76.452,17.82,36.789,0,375
32797,0.968,0.068,0.228,2.43,-1.88,3.34,-75.936,16.075,36.789,0,239
32818,0.984,0.072,0.224,2.3,-2.23,3.48,-75.599,17.573,36.789,0,201
32839,0.98,0.08,0.244,4.31,-0.9,3.13,-78.234,20.558,36.789,0,268
32860,0.968,0.052,0.252,4.1,-4.1,3.76,-75.12,11.66,36.789,0,313
32881,0.976,0.056,0.224,0.97,-0.83,3.69,-76.696,14.037,36.797,0,397
32902,0.956,0.072,0.192,0.56,-0.83,4.94,-77.9,20.558,36.606,0,436
32922,0.98,0.04,0.208,5.22,-2.09,3.27,-77.81,10.886,36.807,0,470
32944,0.98,0.056,0.212,2.99,-0.28,3.27,-77.394,14.798,36.796,0,487
32964,0.988,0.072,0.232,0.97,1.67,3.97,-76.542,18.743,36.648,0,396
32986,0.98,0.072,0.216,0.07,2.37,3.76,-76.957,19.386,36.648,0,351
33006,0.976,0.076,0.216,0.42,1.46,3.41,-76.328,18.743,36.648,0,311
33027,0.976,0.064,0.216,2.02,0.77,3.34,-77.008,16.506,36.648,0,269
33048,0.976,0.06,0.228,1.67,0.56,3.2,-76.425,14.745,36.648,0,262
33069,0.968,0.056,0.208,1.74,1.18,3.27,-77.46,15.07,36.498,0,341
33090,0.972,0.06,0.236,0.63,1.04,3.34,-75.941,14.266,36.506,0,377
33111,0.972,0.06,0.192,-0.35,0.56,4.17,-78.313,17.355,36.541,0,403
33131,0.976,0.056,0.216,1.95,-0.42,3.13,-77.763,16.391,36.49,0,417
33153,0.988,0.068,0.2,0.83,0.28,3.62,-76.753,21.252,36.742,0,328
33173,0.992,0.072,0.22,0.14,0.83,3.55,-76.871,18.123,36.742,0,279
33193,0.984,0.068,0.22,1.04,1.18,3.41,-76.835,17.177,36.742,0,249
33215,0.984,0.064,0.22,0.07,0.97,2.92,-76.898,16.221,36.742,0,234
33235,0.98,0.068,0.22,0.9,0.49,2.78,-76.783,17.177,36.742,0,232
33257,0.972,0.068,0.204,0.56,0.63,2.92,-77.531,18.436,36.608,0,330
33277,0.976,0.056,0.204,0.07,1.39,2.78,-77.776,15.351,36.452,0,380
33298,0.976,0.056,0.204,0.21,1.88,2.71,-77.666,16.391,36.452,0,406
33319,0.972,0.056,0.22,0.07,2.02,2.78,-77.834,14.301,36.519,0,412
33340,0.98,0.068,0.212,-0.42,1.39,2.71,-77.206,17.785,36.548,0,333
33360,0.984,0.06,0.212,0.28,0.28,2.92,-77.385,15.804,36.54,0,294
33382,0.984,0.06,0.216,0.49,-0.35,2.99,-77.171,15.525,36.54,0,342
33402,0.984,0.072,0.208,1.6,0.35,2.92,-77.397,19.095,36.54,0,113
33424,0.984,0.076,0.236,1.53,-0.14,2.78,-75.863,17.852,36.54,0,237
33444,0.98,0.056,0.164,1.74,0.97,3.2,-79.978,18.855,36.573,0,338
33465,0.98,0.048,0.228,1.32,0.56,2.3,-76.796,12.096,36.567,0,383
33486,0.972,0.06,0.204,-2.02,2.3,2.99,-78.127,22.013,36.685,0,417
33507,0.972,0.068,0.2,1.32,0.42,4.17,-77.744,18.779,36.556,0,440
33527,0.992,0.052,0.196,3.48,-0.49,2.85,-78.453,14.86,36.543,0,377
33549,0.988,0.072,0.212,1.95,1.6,2.92,-77.237,18.76,36.586,0,331
33569,0.988,0.08,0.216,0.35,2.43,3.27,-76.882,20.325,36.586,0,308
33591,0.996,0.072,0.208,0.28,1.25,3.06,-77.544,19.095,36.586,0,289
33611,0.984,0.076,0.208,0.77,0.83,3.27,-77.323,20.073,36.586,0,263
33632,0.968,0.06,0.2,1.11,0.9,3.55,-77.785,14.301,36.586,0,326
33653,0.968,0.056,0.208,1.6,1.18,3.06,-77.609,15.07,36.383,0,355
33674,0.976,0.06,0.216,0.83,1.25,3.13,-77.07,15.525,36.39,0,376
33695,0.98,0.06,0.188,0.21,2.78,3.13,-78.62,17.702,36.375,0,396
33716,0.988,0.064,0.228,0.97,1.04,3.06,-76.527,15.681,36.385,0,347
33736,0.984,0.068,0.204,0.9,1.25,2.78,-77.679,18.436,36.511,0,287
33758,0.984,0.068,0.212,0.35,1.46,3.34,-77.257,17.785,36.511,0,252
33778,0.988,0.068,0.216,0,2.3,3.34,-77.096,17.476,36.511,0,235
33799,0.996,0.06,0.208,0.21,2.02,3.55,-76.835,17.177,36.511,0,222
33820,0.976,0.06,0.208,-0.28,2.16,3.69,-77.234,15.804,36.511,0,297
33841,0.976,0.056,0.216,0.83,2.3,3.41,-77.128,14.536,36.404,0,350
33862,0.972,0.06,0.216,1.25,2.23,3.48,-77.018,15.525,36.548,0,382
33883,0.98,0.052,0.212,0.97,2.23,3.48,-77.449,13.783,36.318,0,400
33903,0.972,0.064,0.216,0.83,2.09,3.27,-76.957,16.506,36.415,0,382
33925,0.984,0.06,0.212,1.6,1.67,3.06,-77.385,15.804,36.514,0,293
33945,0.984,0.068,0.208,1.04,1.53,2.85,-77.307,17.785,36.514,0,258
33966,0.988,0.068,0.204,0.63,2.02,2.85,-77.096,17.476,36.514,0,234
33987,0.988,0.064,0.208,0.9,1.6,2.64,-77.257,17.785,36.514,0,323
34008,0.972,0.048,0.204,2.02,1.53,2.3,-77.839,13.241,36.514,0,185
34029,0.976,0.056,0.22,1.6,0.07,2.43,-76.912,14.282,36.516,0,303
34050,0.98,0.056,0.176,3.06,0.42,2.16,-79.333,17.651,36.436,0,382
34070,0.976,0.056,0.204,0.7,0.28,2.57,-77.776,15.351,36.457,0,404
34092,0.976,0.052,0.232,-2.02,0.63,2.16,-76.315,12.634,36.492,0,406
34112,0.968,0.08,0.2,0.28,0.35,3.97,-76.822,18.436,36.375,0,322
34134,0.988,0.068,0.216,3.13,-1.04,2.64,-77.541,14.798,36.375,0,286
34154,0.996,0.06,0.204,3.55,0.35,1.88,-77.471,16.8,36.375,0,273
34174,0.996,0.072,0.22,1.32,2.3,2.37,-76.922,18.123,36.375,0,272
34196,0.976,0.052,0.204,0.83,1.46,2.64,-77.834,14.301,36.375,0,324
34216,0.968,0.064,0.208,1.32,0.97,2.92,-77.335,17.104,36.334,0,388
34238,0.968,0.072,0.208,1.25,0.7,2.78,-77.195,19.095,36.747,0,396
34258,0.968,0.068,0.2,0.97,1.6,3.06,-77.695,18.779,36.359,0,394
34279,0.964,0.06,0.204,0.56,1.6,3.27,-76.571,16.888,36.364,0,387
34300,0.988,0.068,0.224,1.32,2.43,2.78,-77.911,19.8,36.439,0,293
34321,0.984,0.068,0.2,0.35,2.57,2.85,-77.397,19.095,36.439,0,257
34341,0.988,0.068,0.216,0.97,1.25,2.99,-77.096,17.476,36.439,0,235
34363,0.984,0.068,0.212,0.77,0.14,3.06,-77.257,17.785,36.439,0,223
34383,0.976,0.06,0.208,0.97,-0.28,2.99,-77.5,16.092,36.439,0,242
34404,0.984,0.06,0.208,0.21,0.21,2.09,-77.598,16.092,36.404,0,319
34425,0.988,0.052,0.204,0.14,-0.14,1.53,-77.977,14.301,36.404,0,347
34446,0.98,0.056,0.212,0.28,-0.14,1.46,-77.171,16.8,36.514,0,367
34467,0.976,0.064,0.212,0.7,0.42,1.53,-77.418,18.105,36.399,0,376
34488,0.98,0.072,0.2,0.49,1.11,1.88,-78.1,19.135,36.572,0,280
34508,0.984,0.072,0.204,-0.07,1.39,2.16,-77.606,19.441,36.572,0,249
34530,0.984,0.072,0.212,-0.14,1.18,2.71,-77.187,18.76,36.572,0,214
34550,0.984,0.072,0.208,-0.35,1.11,3.27,-77.397,19.095,36.572,0,193
34571,0.984,0.072,0.204,-0.7,1.53,3.2,-77.606,19.441,36.572,0,202
34592,0.984,0.064,0.196,-1.11,2.16,3.34,-78.171,18.085,36.583,0,323
34613,0.984,0.064,0.204,-0.42,2.09,3.27,-77.715,16.391,36.503,0,375
34634,0.98,0.06,0.204,0.63,1.67,2.99,-77.105,17.785,36.468,0,235
34655,0.976,0.068,0.204,1.95,0.63,2.71,-78.149,18.436,36.489,0,380
34675,0.988,0.072,0.18,0.56,2.5,3.13,-78.904,21.803,36.404,0,312
34697,0.988,0.068,0.244,-0.77,1.46,1.6,-75.626,15.574,36.404,0,281
34717,0.976,0.08,0.192,-1.18,2.71,2.99,-77.975,22.622,36.404,0,265
34739,0.984,0.08,0.212,3.27,0.35,3.13,-77.038,20.676,36.404,0,256
34759,0.996,0.052,0.204,4.31,0.07,1.39,-78.071,14.301,36.404,0,266
34780,0.98,0.072,0.196,1.6,2.5,2.23,-77.621,19.8,36.372,0,372
34801,0.976,0.072,0.204,0.97,2.78,2.71,-77.297,19.095,36.551,0,428
34822,0.988,0.068,0.212,2.37,1.74,2.23,-78.054,17.746,36.522,0,459
34842,0.972,0.068,0.212,1.25,2.09,2.43,-77.105,17.785,36.607,0,456
34864,0.976,0.076,0.212,0.56,2.71,2.57,-77.012,19.724,36.607,0,354
34884,0.984,0.072,0.2,0.28,3.97,2.71,-77.816,19.8,36.698,0,284
34906,0.988,0.076,0.232,-0.42,2.37,2.92,-76.126,18.139,36.698,0,251
34926,0.984,0.072,0.2,0.9,3.76,2.99,-77.816,19.8,36.698,0,237
34947,0.984,0.08,0.212,1.46,2.3,2.5,-76.995,17.476,36.698,0,234
34968,0.98,0.064,0.212,0,2.5,2.57,-77.93,16.7,36.74,0,326
34989,0.98,0.064,0.2,0.49,2.16,2.43,-77.699,17.419,36.688,0,367
35009,0.984,0.064,0.216,-0.56,2.92,2.71,-77.11,16.506,36.62,0,395
35031,0.972,0.072,0.204,-0.56,3.34,3.27,-77.458,19.441,36.532,0,414
35051,0.98,0.072,0.22,0.07,2.64,2.78,-76.716,18.123,36.676,0,361
35072,0.976,0.072,0.208,0,3.48,2.85,-77.297,19.095,36.569,0,303
35093,0.972,0.076,0.204,0,3.48,2.85,-77.382,20.434,36.569,0,269
35113,0.984,0.068,0.208,0.21,3.48,2.37,-77.468,18.105,36.569,0,269
35134,0.984,0.072,0.216,0.42,3.55,2.64,-77.114,19.724,36.569,0,252
35155,0.976,0.064,0.216,0.9,3.2,2.64,-77.137,18.76,36.569,0,321
35176,0.976,0.068,0.208,0.21,3.97,2.71,-77.368,18.105,36.695,0,374
35197,0.972,0.068,0.208,0.14,4.1,2.57,-77.318,18.105,36.684,0,422
35218,0.98,0.056,0.22,1.74,3.62,2.64,-76.963,14.282,36.792,0,520
35238,0.984,0.064,0.224,1.46,2.43,2.57,-76.686,15.947,36.612,0,271
35260,0.972,0.072,0.236,3.48,0.97,3.06,-75.762,16.967,36.669,0,326
35280,0.98,0.08,0.18,1.39,1.6,3.06,-78.641,23.964,36.669,0,296
35302,0.98,0.064,0.236,-0.7,1.74,2.16,-75.36,15.334,36.669,0,284
35322,0.976,0.076,0.216,-0.77,2.64,3.27,-77.475,22.784,36.669,0,275
35343,0.972,0.064,0.228,2.09,0.14,4.38,-76.313,15.681,36.669,0,342
35364,0.98,0.056,0.216,4.52,-0.49,2.37,-77.178,14.536,36.522,0,405
35385,0.964,0.06,0.216,1.53,1.53,4.94,-76.914,15.525,36.827,0,452
35406,0.972,0.068,0.22,2.43,2.02,3.83,-76.678,17.177,36.645,0,488
35427,1.004,0.072,0.208,1.81,2.3,2.3,-77.64,19.095,36.889,0,480
35447,0.988,0.076,0.216,1.46,3.06,2.43,-76.77,18.436,36.759,0,370
35469,0.968,0.076,0.216,1.53,2.71,2.64,-76.274,18.743,36.759,0,293
35489,0.968,0.076,0.224,1.25,3.34,2.71,-76.645,19.059,36.759,0,245
35510,0.98,0.076,0.236,1.32,2.64,3.06,-75.808,17.852,36.759,0,228
35531,0.976,0.076,0.212,2.02,3.97,2.85,-77.012,19.724,36.759,0,273
35552,0.972,0.064,0.216,0.9,3.55,3.13,-76.957,16.506,36.736,0,342
35573,0.972,0.064,0.22,1.6,2.64,3.27,-76.742,16.221,36.893,0,374
35594,0.976,0.068,0.204,0.35,2.78,3.41,-77.581,18.436,36.733,0,397
35614,0.98,0.068,0.216,0,3.2,2.71,-76.469,19.655,36.82,0,396
35636,0.98,0.076,0.22,-0.35,3.62,3.13,-76.697,19.059,36.889,0,303
35656,0.968,0.072,0.224,0.9,2.92,3.06,-76.241,17.527,36.889,0,263
35677,0.968,0.072,0.224,1.11,2.3,5.29,-76.344,17.82,36.889,0,244
35698,0.976,0.076,0.22,0.56,2.64,3.83,-76.592,19.059,36.889,0,227
35719,0.98,0.068,0.224,0.9,2.43,2.92,-76.571,16.888,36.889,0,270
35740,0.972,0.06,0.216,1.04,2.09,3.2,-77.018,15.525,36.762,0,339
35761,0.976,0.06,0.224,0.83,1.88,3.27,-76.64,14.996,36.976,0,368
35781,0.964,0.068,0.216,0.42,1.53,3.69,-76.896,17.785,36.813,0,392
35803,0.96,0.064,0.216,0.42,1.25,4.52,-76.678,17.177,36.846,0,424
35823,0.948,0.076,0.236,0.56,2.02,6.82,-75.68,18.139,36.647,0,390
35844,0.996,0.076,0.236,0,1.04,4.66,-76.027,17.852,36.647,0,135
35865,1.004,0.06,0.224,2.5,0.77,2.02,-77,14.996,36.647,0,264
35886,0.984,0.072,0.2,-1.18,2.5,2.99,-77.816,19.8,36.647,0,267
35907,0.976,0.052,0.236,-2.78,3.55,2.16,-76.099,12.427,36.647,0,287
35928,0.968,0.06,0.208,-0.49,4.66,2.99,-77.4,16.092,36.653,0,371
35948,0.96,0.068,0.224,1.18,2.37,3.27,-76.912,14.282,36.473,0,412
35970,0.98,0.048,0.224,2.64,1.32,1.88,-77.131,13.537,36.629,0,442
35990,0.972,0.056,0.22,0.7,2.78,2.57,-76.571,17.177,36.677,0,474
36011,0.944,0.076,0.228,1.46,3.06,6.96,-75.722,18.436,36.897,0,414
36032,0.992,0.068,0.228,2.85,2.99,4.38,-76.518,16.608,36.897,0,368
36052,1.008,0.072,0.22,1.67,3.2,2.78,-77.072,18.123,36.897,0,317
36074,0.976,0.068,0.224,0.21,3.13,3.06,-76.518,16.888,36.897,0,264
36094,0.96,0.068,0.244,0.28,2.99,3.34,-75.225,15.574,36.897,0,239
36115,0.968,0.052,0.22,2.09,3.13,2.64,-75.665,13.135,36.742,0,313
36136,0.968,0.064,0.24,2.78,4.31,2.3,-76.957,16.506,36.57,0,351
36157,0.972,0.064,0.208,0.14,4.24,2.85,-76.044,15.423,36.647,0,372
36178,0.968,0.052,0.228,1.6,2.92,2.37,-76.424,12.849,36.753,0,388
36199,0.968,0.072,0.232,0.21,2.71,2.64,-75.918,17.243,36.715,0,321
36219,0.968,0.072,0.24,-0.7,3.2,3.41,-75.493,16.7,36.653,0,282
36241,0.968,0.076,0.24,-0.49,2.78,4.73,-75.428,17.573,36.653,0,252
36261,0.96,0.056,0.24,0,2.78,4.59,-75.608,13.135,36.653,0,232
36282,1.008,0.068,0.24,-0.07,2.02,2.92,-76.369,15.423,36.653,0,224
36303,0.984,0.056,0.22,-0.56,2.85,3.41,-76.263,14.745,36.674,0,305
36324,0.964,0.048,0.224,0.21,3.48,2.85,-76.318,13.801,36.637,0,337
36345,0.96,0.056,0.232,-0.56,3.48,2.71,-76.044,13.571,36.752,0,373
36366,0.96,0.06,0.236,-0.28,2.99,2.37,-75.772,14.266,36.666,0,387
36386,0.968,0.072,0.24,0,2.43,2.5,-75.493,16.7,36.819,0,320
36408,0.98,0.064,0.236,-1.11,3.06,2.92,-75.996,15.174,36.844,0,280
36428,0.976,0.068,0.232,-1.18,2.78,3.48,-76.093,16.337,36.844,0,268
36449,0.972,0.064,0.24,-0.63,2.43,3.27,-75.727,14.933,36.844,0,366
36470,0.976,0.072,0.24,-2.57,2.09,2.85,-74.882,15.71,36.844,0,92
36491,0.972,0.056,0.256,0.28,1.88,2.85,-76.748,13.07,36.844,0,318
36512,0.972,0.068,0.212,-1.46,2.92,3.34,-77.105,17.785,36.557,0,354
36533,0.968,0.052,0.264,-4.17,3.13,2.92,-74.471,11.144,36.648,0,389
36553,0.968,0.052,0.224,-1.67,4.17,3.27,-76.642,13.07,36.503,0,407
36575,0.964,0.064,0.244,1.46,2.3,3.76,-75.342,14.698,36.548,0,375
36595,0.976,0.048,0.248,3.27,0.83,1.53,-75.495,10.955,36.551,0,326
36617,0.976,0.056,0.252,1.88,2.09,1.67,-75.355,13.602,36.551,0,312
36637,0.976,0.068,0.252,1.32,2.92,2.78,-75.457,15.574,36.551,0,311
36658,0.98,0.064,0.248,2.02,2.78,2.23,-75.457,15.574,36.551,0,304
36679,0.96,0.056,0.24,1.11,2.5,2.57,-75.608,13.135,36.551,0,353
36700,0.956,0.056,0.248,-0.07,2.78,2.09,-75.113,12.725,36.645,0,351
36720,0.96,0.06,0.256,-1.18,3.13,3.06,-74.688,13.192,36.875,0,349
36742,0.964,0.044,0.236,2.16,2.92,2.23,-76.022,10.562,36.474,0,353
36762,0.964,0.064,0.264,2.09,2.09,2.64,-74.268,13.628,36.788,0,336
36784,0.976,0.064,0.244,-1.04,1.25,3.13,-74.757,14.037,36.648,0,272
36804,0.968,0.06,0.26,1.53,-0.49,2.78,-74.851,14.251,36.648,0,250
36825,0.968,0.068,0.244,-0.14,-0.35,2.64,-75.033,15.102,36.648,0,239
36846,0.984,0.072,0.252,-1.04,0.21,2.71,-75.091,15.947,36.648,0,231
36867,0.972,0.056,0.244,-2.3,1.04,2.99,-75.563,12.927,36.648,0,282
36888,0.964,0.052,0.248,-1.95,0.7,2.78,-75.278,11.843,36.914,0,322
36909,0.964,0.052,0.244,-2.64,0.14,2.57,-75.496,12.031,36.57,0,351
36929,0.952,0.052,0.24,-2.3,-0.35,3.34,-75.541,12.226,36.639,1,372
36951,0.964,0.048,0.232,-0.63,-0.83,2.99,-75.342,15.574,36.605,1,370
36971,0.968,0.064,0.24,-1.6,0.07,2.85,-75.829,15.174,36.546,1,282
36993,0.972,0.06,0.232,-2.09,-0.28,2.99,-76.154,15.423,36.546,1,262
37013,0.98,0.06,0.248,-1.11,-0.56,2.64,-75.412,13.602,36.546,1,229
37033,0.976,0.064,0.244,-1.81,-0.28,2.57,-75.514,14.698,36.546,1,225
37055,0.968,0.052,0.232,-2.16,0.56,2.5,-76.206,12.634,36.546,1,275
37075,0.968,0.052,0.232,-1.25,0.21,2.09,-76.206,12.634,36.597,1,440
37096,0.968,0.052,0.236,-0.9,-0.63,1.95,-75.988,12.427,36.678,1,332
37117,0.968,0.048,0.248,-2.5,-1.39,2.43,-75.448,12.927,36.449,1,301
37138,0.964,0.056,0.22,-0.14,0.28,2.43,-78.504,18.801,36.361,1,394
37159,0.976,0.068,0.22,-2.5,0.77,2.57,-75.147,14.251,36.557,1,311
37180,0.976,0.056,0.24,-4.03,1.32,1.53,-75.834,13.135,36.557,1,280
37200,0.964,0.076,0.22,-0.42,1.04,3.06,-76.431,19.059,36.557,1,267
37222,0.972,0.056,0.232,1.53,-0.07,1.95,-76.21,13.571,36.557,1,263
37242,0.988,0.048,0.232,0.77,0.9,1.32,-76.521,11.69,36.557,1,295
37264,0.976,0.06,0.24,-1.11,1.81,2.23,-75.782,14.037,36.608,1,394
37284,0.972,0.064,0.232,-0.56,1.46,2.37,-75.983,16.337,36.654,1,441
37305,0.972,0.056,0.228,0.9,0.63,1.46,-76.211,14.501,36.479,1,462
37326,0.96,0.06,0.232,-0.07,1.39,1.6,-76.428,14.037,36.603,1,444
37347,0.968,0.068,0.24,-1.39,1.67,2.3,-75.555,15.82,36.656,1,315
37367,0.98,0.068,0.236,-0.21,1.81,2.09,-75.936,16.075,36.656,1,256
37389,0.984,0.064,0.248,-0.83,0.9,2.02,-75.416,14.471,36.656,1,229
37409,0.972,0.064,0.24,-0.7,2.37,2.23,-75.671,14.933,36.656,1,218
37431,0.968,0.06,0.24,0.56,0,2.3,-75.67,14.037,36.656,1,219
37451,0.968,0.056,0.236,-0.83,0.77,2.09,-76.373,13.801,36.755,1,313
37472,0.972,0.064,0.232,-1.81,0.83,2.5,-75.885,14.266,36.589,1,353
37493,0.968,0.06,0.236,-2.5,1.95,2.64,-76.211,14.501,36.632,1,377
37514,0.98,0.06,0.24,-2.57,2.02,2.78,-75.838,14.037,36.608,1,388
37534,0.984,0.064,0.24,-2.09,1.81,2.71,-75.839,14.933,36.576,1,305
37556,0.972,0.06,0.236,-1.67,1.95,2.78,-75.941,14.266,36.57,1,263
37576,0.968,0.064,0.236,-1.6,1.53,2.71,-75.829,15.174,36.57,1,232
37598,0.976,0.06,0.24,-1.74,1.11,2.64,-75.782,14.037,36.57,1,227
37618,0.98,0.064,0.244,-1.46,0.56,2.64,-75.939,13.35,36.57,1,219
37639,0.964,0.056,0.24,-1.67,0.35,2.64,-75.988,15.423,36.57,1,300
37660,0.964,0.06,0.228,-2.57,1.46,2.57,-76.534,14.996,36.326,1,340
37681,0.968,0.056,0.228,-2.78,1.53,2.23,-76.373,13.801,36.498,1,365
37702,0.968,0.048,0.236,-1.74,1.39,2.23,-76.034,11.497,36.415,1,499
37723,0.972,0.06,0.248,-0.83,0.9,2.43,-75.297,13.602,36.741,1,209
37743,0.972,0.068,0.244,-0.56,1.11,2.78,-75.399,15.574,36.735,1,272
37765,0.98,0.064,0.18,-0.9,1.88,2.85,-78.975,19.575,36.735,1,245
37785,0.98,0.052,0.256,-3.55,2.37,2.09,-75.355,13.602,36.735,1,236
37807,0.964,0.068,0.232,-3.55,2.64,2.71,-76.61,18.123,36.735,1,250
37827,0.964,0.068,0.22,-0.07,1.46,2.99,-75.834,13.135,36.7,1,351
37848,0.98,0.04,0.224,0.28,2.85,1.67,-76.934,10.125,36.144,1,429
37869,0.972,0.048,0.228,-0.77,3.27,2.16,-76.526,11.89,36.523,1,475
37890,0.984,0.052,0.236,-1.11,3.41,2.23,-76.207,12.427,36.322,1,503
37911,0.968,0.06,0.236,-0.77,2.92,2.37,-75.885,14.266,36.406,1,475
37932,0.968,0.056,0.24,-0.28,1.95,2.09,-75.722,13.135,36.447,1,409
37952,0.972,0.06,0.24,-0.07,2.23,1.25,-75.834,13.135,36.447,1,341
37974,0.972,0.052,0.24,-1.25,2.78,2.16,-75.512,13.816,36.447,1,291
